Core-ID,CDISC Rule ID,Error Message,Description,Standard Name,Standard Version,Scope,Executability,Status
,FB2306,A subject has a no record in EX but is not populated ARMNRS while participating in an interventional study,All subjects that have no record in the Exposure domain who are participating in a study that includes an interventional product should have ARMNRS populated.,SDTMIG,"3.3, 3.4","{""Classes"":{""Include"":[""SPECIAL PURPOSE""]},""Domains"":{""Include"":[""DM""]}}",Fully Executable,Draft
,FB2305,A subject has a no record in EX but is assigned to a treatment while participating in an interventional study,All subjects that have no record in the Exposure domain who are participating in a study that includes an interventional product should not be assigned to a treatment.,SDTMIG,3.2,"{""Classes"":{""Include"":[""SPECIAL PURPOSE""]},""Domains"":{""Include"":[""DM""]}}",Fully Executable,Draft
,FB2304,A subject has a record in EX but is not assigned to a treatment while participating in an interventional study,All subjects in the Exposure domain who are participating in a study that includes an interventional product must be assigned to an ARM.,SDTMIG,"3.3, 3.4","{""Classes"":{""Include"":[""SPECIAL PURPOSE""]},""Domains"":{""Include"":[""DM""]}}",Fully Executable,Draft
CORE-000880,FB4006,Negative value for --PDUR,Value for duration (--PDUR) should not be negative.,SDTMIG,3.4,"{""Classes"":{""Include"":[""FINDINGS""]},""Domains"":{""Include"":[""BS"",""CP"",""GF"",""IS"",""LB"",""MB"",""MS"",""MI"",""PC"",""PP""]}}",Fully Executable,Published
,FB2303,A subject has a record in EX but is not assigned to a treatment while participating in an interventional study,All subjects in the Exposure domain who are participating in a study that includes an interventional product must be assigned to a treatment.,SDTMIG,3.2,"{""Classes"":{""Include"":[""SPECIAL PURPOSE""]},""Domains"":{""Include"":[""DM""]}}",Fully Executable,Draft
,FB1502,Text variables in submitted datasets contain  '.' as an entire value.,Value does not contain any alphanumeric characters other than a period character.,"SDTMIG, SENDIG, SENDIG-DART, SENDIG-AR, SENDIG-GENETOX","3.2, 3.3, 3.4, 3.0, 3.1, 3.1.1, 1.1, 1.2, 1.0","{""Classes"":{""Include"":[""ALL""]},""Domains"":{""Include"":[""ALL""]}}",Fully Executable,Draft
CORE-000865,FB4405,'--TPTREF must be populated when --ELTM is populated,'--TPTREF must be populated when --ELTM is populated,"SDTMIG, SENDIG, SENDIG-DART, SENDIG-AR, SENDIG-GENETOX","3.2, 3.3, 3.4, 3.0, 3.1, 3.1.1, 1.1, 1.2, 1.0","{""Classes"":{""Include"":[""FINDINGS"",""EVENTS"",""INTERVENTIONS""]},""Domains"":{""Include"":[""ALL""]}}",Fully Executable,Published
CDISC.SDTMIG.CG0320,CG0320,'--TESTCD does not exist in custom Findings domain.,Raise an error when variable --TESTCD is missing for custom Findings domains,SDTMIG,"3.4, 3.2, 3.3","{""Classes"":{""Include"":[""ALL""]},""Domains"":{""Include"":[""ALL""]}}",Fully Executable,Draft
CORE-000867,FB1501,Text variables in submitted datasets contain strings which have leading space ' characters,Text variables in submitted datasets should not contain strings which have leading space ' characters,"SDTMIG, SENDIG, SENDIG-DART, SENDIG-AR, SENDIG-GENETOX","3.2, 3.3, 3.4, 3.0, 3.1, 3.1.1, 1.1, 1.2, 1.0","{""Classes"":{""Include"":[""ALL""]},""Domains"":{""Include"":[""ALL""]}}",Fully Executable,Published
CORE-000866,FB3210,'--DTC is greater than --ENDTC,Date/Time of Specimen Collection (--DTC) must be less or equal to End Date/Time of Specimen Collection (--ENDTC).,"SDTMIG, SENDIG, SENDIG-GENETOX, SENDIG-DART, SENDIG-AR","3.2, 3.3, 3.4, 3.0, 3.1, 3.1.1, 1.0, 1.1, 1.2","{""Classes"":{""Include"":[""FINDINGS""]},""Domains"":{""Include"":[""ALL""]}}",Fully Executable,Published
,FB3102,'--STRESC is numeric but --STRESN is not equal to --STRESC,"'--STRESC is populated with a numeric value, but --STRESN is not equal to --STRESC.","SDTMIG, SENDIG, SENDIG-DART, SENDIG-AR, SENDIG-GENETOX","3.2, 3.3, 3.4, 3.0, 3.1, 3.1.1, 1.1, 1.2, 1.0","{""Classes"":{""Include"":[""FINDINGS""]},""Domains"":{""Include"":[""ALL""]}}",Fully Executable,Draft
CORE-000864,FB3206,The End Date/Time of Observation (--ENDTC) is not present in the dataset when Study Day of End of Observation (--ENDY) is present.,"End Study Date/Time (--ENDTC) variable should be included into dataset, when Study Day of End (--ENDY) variable is present.","SDTMIG, SENDIG, SENDIG-AR, SENDIG-DART, SENDIG-GENETOX","3.2, 3.3, 3.4, 3.0, 3.1, 3.1.1, 1.0, 1.1, 1.2","{""Classes"":{""Include"":[""INTERVENTIONS"",""EVENTS"",""FINDINGS"",""FINDINGS ABOUT"",""SPECIAL PURPOSE""]},""Domains"":{""Include"":[""ALL""]}}",Fully Executable,Published
CORE-000863,FB3101,"'--STRESC is populated with a numeric value, but --STRESN is not populated.","When --STRESC is populated with a numeric value, --STRESN should be populated.","SDTMIG, SENDIG, SENDIG-DART, SENDIG-AR, SENDIG-GENETOX","3.2, 3.3, 3.4, 3.0, 3.1, 3.1.1, 1.1, 1.2, 1.0","{""Classes"":{""Include"":[""FINDINGS""]},""Domains"":{""Include"":[""ALL""]}}",Fully Executable,Published
CORE-000862,FB3205,The Start Date/Time of Observation (--STDTC) is not present in the dataset when Study Day of Start of Observation (--STDY) is present.,"Start Study Date/Time (--STDTC) variable should be included into dataset, when Study Day of Start (--STDY) variable is present.","SDTMIG, SENDIG, SENDIG-AR, SENDIG-DART, SENDIG-GENETOX","3.2, 3.3, 3.4, 3.0, 3.1, 3.1.1, 1.0, 1.1, 1.2","{""Classes"":{""Include"":[""INTERVENTIONS"",""EVENTS"",""FINDINGS"",""FINDINGS ABOUT"",""SPECIAL PURPOSE""]},""Domains"":{""Include"":[""ALL""]}}",Fully Executable,Published
CORE-000732,FB3103,'--STRESC is not numeric but --STRESN is not empty,"'--STRESC is not populated with a numeric value, but --STRESN is not empty.","SDTMIG, SENDIG, SENDIG-DART, SENDIG-AR, SENDIG-GENETOX","3.2, 3.3, 3.4, 3.0, 3.1, 3.1.1, 1.1, 1.2, 1.0","{""Classes"":{""Include"":[""FINDINGS""]},""Domains"":{""Include"":[""ALL""]}}",Fully Executable,Published
CDISC.SENDIG.296,"FB1701, SEND296","The value is not from the associated codelist, which is not extensible",Raise an error when there is a non-CT value and the associated codelist is not extensible,"SDTMIG, SENDIG, SENDIG-GENETOX, SENDIG-DART, SENDIG-AR","3.2, 3.3, 3.4, 3.0, 3.1, 3.1.1, 1.0, 1.1, 1.2","{""Classes"":{""Include"":[""ALL""]},""Domains"":{""Include"":[""ALL""]}}",Fully Executable,Draft
CORE-000853,FB1602,The Collection study day (--DY) is not populated when date/time of collection (--DTC) is populated. ,"When date/time of collection (--DTC) is populated, the Collection study day (--DY) should also populated.","SDTMIG, SENDIG, SENDIG-GENETOX, SENDIG-DART, SENDIG-AR","3.2, 3.3, 3.4, 3.0, 3.1, 3.1.1, 1.0, 1.1, 1.2","{""Classes"":{""Include"":[""ALL""]},""Domains"":{""Include"":[""ALL""]}}",Fully Executable,Published
CORE-000844,CG0531,RACE in DM equals 'MULTIPLE' but multiple races are not collected in SUPPDM.,Part A - Raise an error when RACE in DM equals 'MULTIPLE' and SUPPDM dataset is not present.,SDTMIG,"3.3, 3.4","{""Classes"":{""Include"":[""ALL""]},""Domains"":{""Include"":[""DM""]}}",Fully Executable,Published
CORE-000852,"CG0330, CG0664, TIG0698, SEND48",Variables are not in the correct order as shown in SDTM for the observation class.,Raise an error when variables are not in the specified order,"SDTMIG, TIG, SENDIG, SENDIG-GENETOX, SENDIG-DART","3.2, 3.3, 3.4, 1.0, 3.0, 3.1, 3.1.1, 1.1, 1.2","{""Classes"":{""Include"":[""ALL""]},""Domains"":{""Include"":[""ALL""]}}",Fully Executable,Published
CORE-000366,CG0109,"Subject has no records in EX but ACTARMCD is not equal to SCRNFAIL, NOTASSGN or NOTTRT.","Raise an error when subject has no records in EX but ACTARMCD is not equal to SCRNFAIL, NOTASSGN or NOTTRT.",SDTMIG,3.2,"{""Classes"":{""Include"":[""SPECIAL PURPOSE""]},""Domains"":{""Include"":[""DM""]}}",Fully Executable,Published
CORE-000748,FB2504,Subject is assigned to an arm code but has no record in EX,"If a subject is assigned to an arm code, the subject should have a record in EX.",SDTMIG,"3.3, 3.4","{""Classes"":{""Include"":[""SPECIAL PURPOSE"",""INTERVENTIONS""]},""Domains"":{""Include"":[""DM""]}}",Partially Executable,Draft
CORE-000581,"CG0368, TIG0532, TRC1736a, TRC1736c",DM dataset is missing.,Raise an error when DM dataset is not present,"SDTMIG, TIG, SENDIG, SENDIG-GENETOX, SENDIG-DART, SENDIG-AR","3.4, 3.2, 3.3, 1.0, 3.0, 3.1, 3.1.1, 1.1, 1.2","{""Classes"":{""Include"":[""ALL""]},""Domains"":{""Include"":[""ALL""]},""Use_Case"":""INDH""}",Fully Executable,Published
FDA.TRC1734a,TRC1734a,You have not submitted a dataset named ts.xpt.,A dataset named ts.xpt must be present for each study in Module 4 and in Module 5.,"SDTMIG, SENDIG, SENDIG-GENETOX, SENDIG-DART, SENDIG-AR","3.2, 3.3, 3.4, 3.0, 3.1, 3.1.1, 1.0, 1.1, 1.2","{""Classes"":{""Include"":[""ALL""]},""Domains"":{""Include"":[""ALL""]}}",Fully Executable,Draft
CORE-000505,"CG0285, TRC1734c",Invalid date for TSVAL for TSPARMCD = SSTDTC (Study Start Date),Raise an error when TSVAL for TSPARMCD=SSTDTC is not a valid date/time,"SDTMIG, SENDIG, SENDIG-GENETOX, SENDIG-DART, SENDIG-AR","3.2, 3.3, 3.4, 3.0, 3.1, 3.1.1, 1.0, 1.1, 1.2","{""Classes"":{""Include"":[""TRIAL DESIGN""]},""Domains"":{""Include"":[""TS""]}}",Fully Executable,Published
,FB1107,No occurrence of TSPARAMCD='CURTRT' is included in TS or TSVAL is null.,At least one occurrence of TSPARAMCD='CURTRT' is included in TS with TSVAL populated.,SDTMIG,"3.2, 3.3, 3.4","{""Classes"":{""Include"":[""TRIAL DESIGN""]},""Domains"":{""Include"":[""TS""]}}",Fully Executable,Draft
CORE-000730,CG0438,TSVAL does not conform to ISO 8601,"When TSPARMCD is equal to AGEMIN and TSVAL is not null, TSVAL should conform to ISO 8601",SDTMIG,"3.2, 3.3","{""Classes"":{""Include"":[""TRIAL DESIGN""]},""Domains"":{""Include"":[""TS""]}}",Fully Executable,Draft
CORE-000731,CG0439,TSVAL is not NULL and does not conform to ISO 8601 time period,"When TSPARMCD = LENGTH and TSVAL ^= NULL, TSVAL needs to conform to ISO 8601 time period",SDTMIG,"3.2, 3.3","{""Classes"":{""Include"":[""TRIAL DESIGN""]},""Domains"":{""Include"":[""TS""]}}",Fully Executable,Draft
CORE-000097,"CG0218, TIG0432",EPOCH values don't match between Subject Visits (SV) and Subject Elements (SE) datasets.,Raise an error when variable EPOCH values don't match between Subject Visits (SV) and Subject Elements (SE) datasets.,"SDTMIG, TIG","3.4, 3.2, 3.3, 1.0","{""Classes"":{""Include"":[""SPECIAL PURPOSE""]},""Domains"":{""Include"":[""SV""]},""Use_Case"":""INDH""}",Partially Executable - Possible Overreporting,Published
CDISC.SDTMIG.CG0288,CG0288,TSVALCD is not a valid code in the version identified in TSVCDVER.,Raise an error when TSVCDREF ='CDISC' and TSVALCD is not a valid code in the version identified in TSVCDVER.,SDTMIG,"3.4, 3.3, 3.2","{""Classes"":{""Include"":[""TRIAL DESIGN""]},""Domains"":{""Include"":[""TS""]}}",Fully Executable,Draft
,FB0611,Disposition date time value for DEATH record in DS domain is not the same as DTHDTC value in DM domain,Disposition date time value for DEATH record in DS domain is the same as DTHDTC value in DM domain,SDTMIG,"3.2, 3.3, 3.4","{""Classes"":{""Include"":[""EVENTS""]},""Domains"":{""Include"":[""DS""]}}",Fully Executable,Draft
CORE-000259,"CG0171, FB0613","Date time of collection of subject status in SS domain, where survival status is marked as DEAD, is not on or after the date time of death populated in DM domain.","Date time of collection of subject status in SS domain, where survival status is marked as DEAD, is on or after the date time of death populated in DM domain",SDTMIG,"3.4, 3.3, 3.2","{""Classes"":{""Include"":[""FINDINGS""]},""Domains"":{""Include"":[""SS""]}}",Fully Executable,Published
,FB2301,A subject has a record in DM but not in EX while participating in an interventional study,"All subjects in the Demographics domain who are participating in a study that includes an interventional product must have at least one corresponding record in the Exposure domain, except for subjects who failed screening, were not fully assigned to an Arm, or did not receive study treatment.",SDTMIG,3.2,"{""Classes"":{""Include"":[""SPECIAL PURPOSE""]},""Domains"":{""Include"":[""DM""]}}",Fully Executable,Draft
,FB2302,A subject has a record in DM but not in EX while participating in an interventional study,"All subjects in the Demographics domain who are participating in a study that includes an interventional product must have at least one corresponding record in the Exposure domain, except for subjects who failed screening, were not fully assigned to an Arm, or did not receive study treatment.",SDTMIG,"3.3, 3.4","{""Classes"":{""Include"":[""SPECIAL PURPOSE""]},""Domains"":{""Include"":[""DM""]}}",Fully Executable,Draft
CORE-000737,FB1102,"The set of parameters without conditions listed in the TCG, Appendix B, is not included in the list of TSPARAMCD with TSVAL populated.","The set of parameters without conditions listed in the TCG, Appendix B, is not included in the list of TSPARAMCD with TSVAL populated.",SDTMIG,"3.2, 3.3, 3.4","{""Classes"":{""Include"":[""TRIAL DESIGN""]},""Domains"":{""Include"":[""TS""]}}",Fully Executable,Draft
CORE-000738,FB1106,No occurrence of TSPARMCD=’CRMDUR’ is included in TS or TSVAL is null.,No occurrence of TSPARMCD=’CRMDUR’ is included in TS or TSVAL is null.,SDTMIG,"3.2, 3.3, 3.4","{""Classes"":{""Include"":[""TRIAL DESIGN""]},""Domains"":{""Include"":[""TS""]}}",Partially Executable,Draft
CORE-000734,FB1104,TSVAL (Standard Name) does not match corresponding name as listed in on the study data standards resources website for technical specification documents.,TSVAL (Standard Name) matches corresponding name as listed on the study data standards resources website for technical specification documents.,SDTMIG,"3.2, 3.3, 3.4","{""Classes"":{""Include"":[""TRIAL DESIGN""]},""Domains"":{""Include"":[""TS""]}}",Fully Executable,Draft
CORE-000728,FB0904,There is not a one-to-one relationship between TSVAL and TSVALCD,There must be a one-to-one relationship between TSVALCD and TSVAL,SDTMIG,"3.2, 3.3, 3.4","{""Classes"":{""Include"":[""TRIAL DESIGN""]},""Domains"":{""Include"":[""TS""]}}",Fully Executable,Published
,FB4301,End timing is provided without any starting information,,SDTMIG,3.4,"{""Classes"":{""Include"":[""ALL""]},""Domains"":{""Exclude"":[""DM""]}}",Fully Executable,Draft
CORE-000529,"CG0006, TIG0291, SEND73, TIG0274, SEND74, TIG0275, FB1603","'--DY is not calculated correctly even though the date portion of --DTC is complete, the date portion of DM.RFSTDTC is a complete date, and --DY is not empty.",Raise an error when --DY is not calculated as per the study day algorithm as a non-zero integer value when the date portion of --DTC is complete and the date portion of DM.RFSTDTC is a complete date AND --DY is not empty,"SDTMIG, TIG, SENDIG, SENDIG-DART, SENDIG-GENETOX, SENDIG-AR","3.4, 3.2, 3.3, 1.0, 3.0, 3.1, 3.1.1, 1.1, 1.2","{""Classes"":{""Include"":[""ALL""]},""Domains"":{""Include"":[""ALL""]},""Use_Case"":""NONCLIN, INDH, PROD""}",Fully Executable,Published
,FB3211,'--STDTC is greater than --DTC,"Start Date/Time of Event, Exposure (--STDTC) must be less or equal to Date/Time of Collection(--DTC)","SDTMIG, SENDIG, SENDIG-GENETOX, SENDIG-DART, SENDIG-AR","3.2, 3.3, 3.4, 3.0, 3.1, 3.1.1, 1.0, 1.1, 1.2","{""Classes"":{""Include"":[""EVENTS"",""INTERVENTIONS""]},""Domains"":{""Include"":[""ALL""]}}",Fully Executable,Draft
CORE-000356,"CG0014, SEND12, TIG0299, TIG0057",At least one Required variable has a null value,Part B: Raise an error when a Required variable is null.,"SDTMIG, SENDIG, SENDIG-DART, SENDIG-GENETOX, TIG","3.2, 3.3, 3.4, 3.0, 3.1, 3.1.1, 1.1, 1.2, 1.0","{""Classes"":{""Include"":[""ALL""]},""Domains"":{""Include"":[""ALL""]},""Use_Case"":""INDH, PROD, NONCLIN""}",Fully Executable,Published
CORE-000249,"CG0032, TIG0313",Visit Day cannot be found in Trial Visit (TV) domain,Verify that visitdy is planned and exists in TV,"SDTMIG, TIG","3.4, 3.3, 3.2, 1.0","{""Classes"":{""Include"":[""ALL""]},""Domains"":{""Exclude"":[""TV""]},""Use_Case"":""INDH""}",Fully Executable,Published
CORE-000457,"CG0373, TIG0537",SUPP--.RDOMAIN does not represent a dataset present in the study,Trigger error when SUPP--.RDOMAIN does not represent a dataset present in the study,"SDTMIG, TIG","3.4, 3.2, 3.3, 1.0","{""Classes"":{""Include"":[""RELATIONSHIP""]},""Domains"":{""Include"":[""SUPP--""]},""Use_Case"":""INDH, PROD""}",Fully Executable,Published
CDISC.SDTMIG.CG0001,"CG0001, TIG0289, SEND16, TIG0090",DOMAIN Code is not a published DOMAIN Code in CDISC Controlled Terminology.,Raise and error when the DOMAIN Code is not a valid Domain Code published by CDISC.,"SDTMIG, TIG, SENDIG, SENDIG-DART, SENDIG-GENETOX","3.4, 3.2, 3.3, 1.0, 3.0, 3.1, 3.1.1, 1.1, 1.2","{""Classes"":{""Include"":[""ALL""]},""Domains"":{""Include"":[""ALL""]},""Use_Case"":""INDH, PROD, NONCLIN""}",Fully Executable,Draft
,FB6901,The values of PPCAT and PCTEST do not match at the same reference timepoint,The values of PPCAT and PCTEST do not match at the same reference timepoint,"SDTMIG, SENDIG, SENDIG-GENETOX, SENDIG-DART, SENDIG-AR","3.2, 3.3, 3.4, 3.0, 3.1, 3.1.1, 1.0, 1.1, 1.2","{""Classes"":{""Include"":[""FINDINGS""]},""Domains"":{""Include"":[""PP""]}}",Partially Executable,Draft
CORE-000122,"CG0434, TIG0586","AGEU is completed, but both AGE and AGETXT are not completed.",Raise an error when AGEU is completed but both AGETXT and AGE are not completed.,"SDTMIG, TIG","3.4, 3.2, 3.3, 1.0","{""Classes"":{""Include"":[""SPECIAL PURPOSE""]},""Domains"":{""Include"":[""DM""]},""Use_Case"":""INDH""}",Fully Executable,Published
CORE-000594,"CG0359, SEND29, TIG0524, TIG0205",Variable label is not in title case.,Raise an error when a variable label is not in title case,"SDTMIG, SENDIG, SENDIG-DART, SENDIG-GENETOX, TIG","3.4, 3.2, 3.3, 3.0, 3.1, 3.1.1, 1.1, 1.2, 1.0","{""Classes"":{""Include"":[""ALL""]},""Domains"":{""Include"":[""ALL""]},""Use_Case"":""INDH, PROD, NONCLIN""}",Fully Executable,Published
CORE-000380,CG0146,"RFSTDTC must not be null when ACTARM is not in (Screen Failure, Not Assigned, Not Treated.","Raise an error when RFSTDTC is null, but ACTARM is neither Screen Failure, Not Assigned, nor Not Treated",SDTMIG,3.2,"{""Classes"":{""Include"":[""SPECIAL PURPOSE""]},""Domains"":{""Include"":[""DM""]}}",Fully Executable,Published
CORE-000379,CG0145,"RFSTDTC must be null when ACTARM in (Screen failure, Not Assigned, Not Treated).","Raise an error when RFSTDTC is not null, but ACTARM is either Screen Failure, Not Assigned, or Not Treated",SDTMIG,3.2,"{""Classes"":{""Include"":[""SPECIAL PURPOSE""]},""Domains"":{""Include"":[""DM""]}}",Partially Executable,Published
CORE-000378,CG0142,"RFENDTC must not be null when ACTARM is a value other than Screen Failure, Not Assigned, or Not Treated.","Raise an error when RFENDTC is null, but ACTARM is not Screen Failure, Not Assigned, or Not Treated",SDTMIG,3.2,"{""Classes"":{""Include"":[""SPECIAL PURPOSE""]},""Domains"":{""Include"":[""DM""]}}",Fully Executable,Published
CORE-000369,CG0141,"RFENDTC must be null when ACTARM in (Screen Failure, Not Assigned, Not Treated).","Raise an error when RFENDTC is not null, but ACTARM is Screen Failure, Not Assigned, or Not Treated",SDTMIG,3.2,"{""Classes"":{""Include"":[""SPECIAL PURPOSE""]},""Domains"":{""Include"":[""DM""]}}",Fully Executable,Published
CORE-000330,CG0122,ARM should be equal to ACTARM when ARM is Screen Failure or Not Assigned.,"ACTARM value must match ARM value in Demographics when ARM equals ""Screen Failure"" or ""Not Assigned""",SDTMIG,3.2,"{""Classes"":{""Include"":[""SPECIAL PURPOSE""]},""Domains"":{""Include"":[""DM""]}}",Fully Executable,Published
CORE-000368,"CG0120, CG0121","ARM is not in TA.ARM, but ARM in DM does not equal Screen Failure or Not Assigned.","ARM values in Demographics are restricted to ARM values in Trial Arms when not equal to ""Screen Failure"" or ""Not Assigned""",SDTMIG,3.2,"{""Classes"":{""Include"":[""SPECIAL PURPOSE""]},""Domains"":{""Include"":[""DM""]}}",Fully Executable,Published
CORE-000530,CG0119,ACTARM should be equal to ARM when ACTARM is Screen Failure or Not Assigned.,"Raise an error when ACTARM is Screen Failure or Not Assigned, and ACTARM does not equal ARM",SDTMIG,3.2,"{""Classes"":{""Include"":[""SPECIAL PURPOSE""]},""Domains"":{""Include"":[""DM""]}}",Fully Executable,Published
CORE-000367,"CG0117, CG0118","ACTARM is not in TA.ARM, but ACTARM in DM does not equal Screen Failure, Not Assigned, Not Treated, or Unplanned Treatment.","Raise an error when no TA.ARM exists for ACTARM in DM and ACTARM does not equal Screen Failure, Not Assigned, Not Treated, or Unplanned Treatment in DM",SDTMIG,3.2,"{""Classes"":{""Include"":[""SPECIAL PURPOSE""]},""Domains"":{""Include"":[""DM""]}}",Fully Executable,Published
,FB2503,Subject is assigned to an arm but has no record in EX,"If a subject is assigned to an arm, the subject should have a record in EX.",SDTMIG,3.2,"{""Classes"":{""Include"":[""SPECIAL PURPOSE""]},""Domains"":{""Include"":[""DM""]}}",Partially Executable,Draft
CORE-000142,"CG0241, TIG0449","'--ELTM is not the same value across records with the same values of DOMAIN, VISITNUM, --TPTREF, and --TPTNUM.","Raise an error when --TPT ^= null and --TPTNUM ^= null and --ELTM ^= null and --ELTM does not have the same value across records with the same values of DOMAIN, VISITNUM, --TPTREF, and --TPTNUM.","SDTMIG, TIG","3.4, 3.3, 3.2, 1.0","{""Classes"":{""Include"":[""ALL""]},""Domains"":{""Include"":[""ALL""]},""Use_Case"":""INDH""}",Fully Executable,Published
CDISC.SDTMIG.CG0184,CG0184,LBSTNRC is populated when LBORRES is a continuous measurement,"When LBORRES is a continuous measurement, LBSTNRC should be null",SDTMIG,"3.4, 3.2, 3.3","{""Classes"":{""Include"":[""FINDINGS""]},""Domains"":{""Include"":[""LB""]}}",Fully Executable,Draft
CORE-000699,FB3001,"Standards units are inconsistent within the same test (category, sub-category, specimen and method)","Standard units should be consistent within the same assessment (having the same --TESTCD, --CAT, --SCAT, --SPEC, --METHOD values)","SDTMIG, SENDIG, SENDIG-GENETOX, SENDIG-DART, SENDIG-AR","3.2, 3.3, 3.4, 3.0, 3.1, 3.1.1, 1.0, 1.1, 1.2","{""Classes"":{""Include"":[""FINDINGS"",""FINDINGS ABOUT""]},""Domains"":{""Include"":[""ALL""]}}",Fully Executable,Published
CORE-000846,CG0531,RACE in DM equals 'MULTIPLE' but multiple races are not collected in SUPPDM.,Part C - Raise an error when RACE in DM equals 'MULTIPLE' but no multiple RACE records are present in SUPPDM.,SDTMIG,"3.3, 3.4","{""Classes"":{""Include"":[""ALL""]},""Domains"":{""Include"":[""DM""]}}",Fully Executable,Published
CORE-000845,CG0531,RACE in DM equals 'MULTIPLE' but multiple races are not collected in SUPPDM.,Part B -  Raise an error when RACE in DM equals 'MULTIPLE' but no records are present in SUPPDM.,SDTMIG,"3.3, 3.4","{""Classes"":{""Include"":[""ALL""]},""Domains"":{""Include"":[""DM""]}}",Fully Executable,Published
CORE-000575,"CG0219, SEND65, TIG0266, TIG0433",No timing variable is provided,There must be at least one timing variable for any of the domains based on the three general observation classes,"SDTMIG, SENDIG, SENDIG-DART, SENDIG-GENETOX, TIG","3.4, 3.2, 3.3, 3.0, 3.1, 3.1.1, 1.1, 1.2, 1.0","{""Classes"":{""Include"":[""FINDINGS"",""INTERVENTIONS"",""EVENTS""]},""Domains"":{""Exclude"":[""IE"",""SC""]},""Use_Case"":""NONCLIN, INDH""}",Partially Executable - Possible Underreporting,Published
CORE-000333,CG0215,"SVUPDES is not populated or does not exist, but the VISIT does not equal a VISIT present in TV",Raise an error when SVUPDES is null and SV.VISIT is not in TV.VISIT,SDTMIG,"3.2, 3.3","{""Classes"":{""Include"":[""SPECIAL PURPOSE""]},""Domains"":{""Include"":[""SV""]}}",Partially Executable - Possible Overreporting,Published
CORE-000843,CG0214,"SVUPDES is populated, but the VISITNUM equals a VISITNUM present in TV","When SVUPDES is populated, then the VISITNUM should not be equal to a VISITNUM in TV",SDTMIG,"3.2, 3.3","{""Classes"":{""Include"":[""SPECIAL PURPOSE""]},""Domains"":{""Include"":[""SV""]}}",Fully Executable,Published
CORE-000842,CG0213,"SVUPDES is not populated or does not exist, but the VISITNUM does not equal a VISITNUM present in TV","When SVUPDES is not populated, then the VISITNUM should be equal to a VISITNUM in TV",SDTMIG,"3.2, 3.3","{""Classes"":{""Include"":[""SPECIAL PURPOSE""]},""Domains"":{""Include"":[""SV""]}}",Partially Executable - Possible Overreporting,Published
CORE-000550,"CG0013, TIG0298",Variable is not an allowed variable for an Observation Class,Trigger error when variable is not an allowed variable for an Observation Class,"SDTMIG, TIG","3.4, 3.2, 3.3, 1.0","{""Classes"":{""Include"":[""ALL""]},""Domains"":{""Include"":[""ALL""]},""Use_Case"":""INDH, PROD""}",Partially Executable - Possible Underreporting,Published
CORE-000841,FB0612,"End date time value for an Adverse event with a fatal outcome, is not the same as DTHDTC value in DM domain","End date time value for an Adverse event with a fatal outcome, should be the same as DTHDTC value in DM domain",SDTMIG,"3.2, 3.3, 3.4","{""Classes"":{""Include"":[""EVENTS""]},""Domains"":{""Include"":[""AE""]}}",Fully Executable,Published
CORE-000254,"CG0134, TIG0383, FB0603",DTHFL is not 'Y' when AE.AEOUT is 'FATAL'.,"When AE.AEOUT is 'FATAL', DTHFL must be 'Y'","SDTMIG, TIG","3.4, 3.2, 3.3, 1.0","{""Classes"":{""Include"":[""SPECIAL PURPOSE""]},""Domains"":{""Include"":[""DM""]},""Use_Case"":""INDH""}",Fully Executable,Published
,FB0609,"AEOUT is not ""FATAL"" and AESDTH is not ""Y"", when DTHFL=""Y""","When the death flag in DM is set to ""Y"", a record should be present in AE domain, with a fatal outcome and cause of seriousness flagged as death.",SDTMIG,"3.2, 3.3, 3.4","{""Classes"":{""Include"":[""EVENTS""]},""Domains"":{""Include"":[""AE"",""DM""]}}",Partially Executable - Possible Overreporting,Draft
CORE-000008,"CG0132, FB0601","DTHFL is not ""Y"", when SS.SSSTRESC equals ""DEAD""","When survival status is marked as Dead in SS dataset, death flag is populated as Y in DM dataset",SDTMIG,"3.2, 3.3, 3.4","{""Classes"":{""Include"":[""SPECIAL PURPOSE""]},""Domains"":{""Include"":[""DM""]}}",Fully Executable,Draft
CDISC.SDTMIG.CG0562,"CG0562, TIG0648",'--REPNUM is null or is not unique per subject per test per timing variables.,"Raise an error when REPNUM is in the dataset and there are multiple records for a subject for a test within the timeframe identified by the timing variables on the record, and --REPNUM is null or not unique per subject per test per timing variables.","SDTMIG, TIG","3.4, 3.3, 1.0","{""Classes"":{""Include"":[""FINDINGS""]},""Domains"":{""Include"":[""ALL""]},""Use_Case"":""INDH""}",Fully Executable,Draft
CORE-000206,"CG0371, TIG0535, SEND121, TIG0058",IDVARVAL does not equal a value of the variable referenced by IDVAR in domain = RDOMAIN.,"When IDVAR is populated, IDVARVAL must equal a value of the variable referenced by IDVAR within the domain referenced by RDOMAIN","SDTMIG, TIG, SENDIG, SENDIG-DART, SENDIG-GENETOX","3.4, 3.2, 3.3, 1.0, 3.0, 3.1, 3.1.1, 1.1, 1.2","{""Classes"":{""Include"":[""SPECIAL PURPOSE"",""RELATIONSHIP""]},""Domains"":{""Include"":[""CO"",""SUPP--"",""RELREC""]},""Use_Case"":""NONCLIN, INDH, PROD""}",Fully Executable,Published
CORE-000793,FB1601,The Collection study day (--DY) is missing when date/time of collection (--DTC) is populated.,"When date/time of collection (--DTC) is populated, the Collection study day (--DY) should be present.","SDTMIG, SENDIG, SENDIG-GENETOX, SENDIG-DART, SENDIG-AR","3.2, 3.3, 3.4, 3.0, 3.1, 3.1.1, 1.0, 1.1, 1.2","{""Classes"":{""Include"":[""ALL""]},""Domains"":{""Include"":[""ALL""]}}",Fully Executable,Published
CORE-000544,CG0028,"'--SEQ is not a unique number per USUBJID per domain, nor a unique number per POOLID per domain, including when the domain is split into multiple files","Excluding TS.TSSEQ, raise an error when --SEQ is not a unique number per USUBJID per domain, or not a unique number per POOLID per domain, including when the domain is split into multiple files.",SDTMIG,"3.4, 3.2, 3.3","{""Classes"":{""Include"":[""ALL""]},""Domains"":{""Exclude"":[""TS""]}}",Fully Executable,Published
CORE-000041,"CG0649, TIG0689, CG0459",TSVAL is not populated with an ISO 21090 null flavor or null flavor description but TSVALNF is populated.,Raise and error when TSVAL is not populated TSVAL is populated with values or synonyms of values in the ISO 21090 null flavor codelist (or other terms that can be represented as null flavors) but TSVALNF is completed.,"SDTMIG, TIG","3.4, 1.0, 3.2, 3.3","{""Classes"":{""Include"":[""TRIAL DESIGN""]},""Domains"":{""Include"":[""TS""]},""Use_Case"":""INDH""}",Fully Executable,Published
CORE-000792,FB0905,'--CLASCD and --CLAS do not have a one-to-one relationship,There must be a one-to-one relationship between --CLASCD and --CLAS,SDTMIG,"3.2, 3.3, 3.4","{""Classes"":{""Include"":[""INTERVENTIONS""]},""Domains"":{""Include"":[""AG"",""CM"",""SU""]}}",Fully Executable,Published
CORE-000791,FB0903,ACTARMCD and ACTARM do not have a one-to-one relationship,ACTARMCD and ACTARM should have a one-to-one relationship,"SDTMIG, SENDIG, SENDIG-GENETOX, SENDIG-DART, SENDIG-AR","3.2, 3.3, 3.4, 3.0, 3.1, 3.1.1, 1.0, 1.1, 1.2","{""Classes"":{""Include"":[""SPECIAL PURPOSE""]},""Domains"":{""Include"":[""DM""]}}",Fully Executable,Published
CORE-000334,"CG0016, TIG0301, SEND13, TIG0065",At least one expected variable is missing from dataset,Raise an error when an expected variable is not present in the dataset.,"SDTMIG, TIG, SENDIG, SENDIG-GENETOX, SENDIG-DART","3.4, 3.3, 3.2, 1.0, 3.0, 3.1, 3.1.1, 1.1, 1.2","{""Classes"":{""Include"":[""ALL""]},""Domains"":{""Include"":[""ALL""]},""Use_Case"":""INDH, PROD, NONCLIN""}",Fully Executable,Published
CORE-000726,FB5701,"Ethnicity has been collected but the values is not mapped to ""HISPANIC OR LATINO"" or ""NOT HISPANIC OR LATINO""","When Ethnicity was collected and it was not mapped as ""HISPANIC OR LATINO"" or ""NOT HISPANIC OR LATINO"".",SDTMIG,"3.2, 3.3, 3.4","{""Classes"":{""Include"":[""SPECIAL PURPOSE"",""RELATIONSHIP""]},""Domains"":{""Include"":[""DM""]}}",Partially Executable,Published
CORE-000790,FB2505,Subject is assigned to an arm but has no record in EX,"If a subject is assigned to an arm, the subject should have a record in EX.",SDTMIG,3.2,"{""Classes"":{""Include"":[""SPECIAL PURPOSE""]},""Domains"":{""Include"":[""DM""]}}",Partially Executable,Published
CORE-000787,CG0291,TSVAL is populated with an ISO 21090 null flavor or null flavor description.,Raise an error when TSVALNF is empty and TSVAL is populated with values or synonyms of values in the ISO 21090 null flavor codelist (or other terms that can be represented as null flavors),SDTMIG,"3.4, 3.3, 3.2","{""Classes"":{""Include"":[""TRIAL DESIGN""]},""Domains"":{""Include"":[""TS""]}}",Fully Executable,Published
CORE-000318,FB0902,ARMCD and ARM do not have a one-to-one relationship,ARMCD and ARM should have a one-to-one relationship,"SDTMIG, SENDIG, SENDIG-GENETOX, SENDIG-DART, SENDIG-AR","3.2, 3.3, 3.4, 3.0, 3.1, 3.1.1, 1.0, 1.1, 1.2","{""Classes"":{""Include"":[""TRIAL DESIGN"",""SPECIAL PURPOSE""]},""Domains"":{""Include"":[""TA"",""TV"",""DM""]}}",Fully Executable,Published
CORE-000328,FB3202,The Study Day of Start of Observation (--STDY) is not present in the dataset when Start Date/Time of Observation (--STDTC) is present.,"Study Day of Start (--STDY) variable should be included into dataset, when Start Study Date/Time (--STDTC) variable is present.","SDTMIG, SENDIG, SENDIG-AR, SENDIG-DART, SENDIG-GENETOX","3.2, 3.3, 3.4, 3.0, 3.1, 3.1.1, 1.0, 1.1, 1.2","{""Classes"":{""Include"":[""INTERVENTIONS"",""EVENTS"",""FINDINGS"",""FINDINGS ABOUT"",""SPECIAL PURPOSE""]},""Domains"":{""Include"":[""ALL""]}}",Fully Executable,Published
CORE-000303,FB0901,'--TESTCD and --TEST do not have a one-to-one relationship,'--TESTCD and --TEST should have a one-to-one relationship,"SDTMIG, SENDIG, SENDIG-GENETOX, SENDIG-DART, SENDIG-AR","3.2, 3.3, 3.4, 3.0, 3.1, 3.1.1, 1.0, 1.1, 1.2","{""Classes"":{""Include"":[""FINDINGS"",""FINDINGS ABOUT""]},""Domains"":{""Include"":[""ALL""]}}",Fully Executable,Published
CORE-000786,"CG0430, TIG0584","IESCAT exists in a dataset, but IECAT does not exist.","Part B - Raise an error when IESCAT exists in a dataset, but IECAT does not exist.","SDTMIG, TIG","3.4, 3.2, 3.3, 1.0","{""Classes"":{""Include"":[""TRIAL DESIGN""]},""Domains"":{""Include"":[""TI""]},""Use_Case"":""INDH""}",Fully Executable,Published
CORE-000785,"CG0429, TIG0583",IECAT should not be null when IESCAT is populated,"Part B - Raise an error when IESCAT is not empty, but IECAT is empty.","SDTMIG, TIG","3.4, 3.2, 3.3, 1.0","{""Classes"":{""Include"":[""TRIAL DESIGN""]},""Domains"":{""Include"":[""TI""]},""Use_Case"":""INDH""}",Fully Executable,Published
CORE-000784,"CG0217, TIG0431",TAETORD values don't match between Subject Visits (SV) and Subject Elements (SE) datasets.,Raise an error when variable TAETORD values don't match between Subject Visits (SV) and Subject Elements (SE) datasets.,"SDTMIG, TIG","3.4, 3.2, 3.3, 1.0","{""Classes"":{""Include"":[""SPECIAL PURPOSE""]},""Domains"":{""Include"":[""SV""]},""Use_Case"":""INDH""}",Fully Executable,Published
CORE-000783,"CG0314, SEND274, SEND274.1","SUPP--.QNAM is present in the dataset, but the value of SUPP--.QNAM equals a variable name defined in the corresponding SDTM version.","Raise an error when SUPP--.QNAM is present in dataset, but value of SUPP--.QNAM is equal to a variable name defined in the corresponding SDTM version.","SDTMIG, SENDIG, SENDIG-GENETOX, SENDIG-DART","3.4, 3.2, 3.3, 3.0, 3.1, 3.1.1, 1.0, 1.1, 1.2","{""Classes"":{""Include"":[""RELATIONSHIP""]},""Domains"":{""Include"":[""SUPP--""]}}",Fully Executable,Published
CORE-000580,"CG0325, TIG0495","The combination of TESTRL, TEENRL, and TEDUR is not unique for each ETCD.","The combination of TESTRL, TEENRL, and TEDUR must be unique for each ETCD.","SDTMIG, TIG","3.4, 3.2, 3.3, 1.0","{""Classes"":{""Include"":[""TRIAL DESIGN""]},""Domains"":{""Include"":[""TE""]},""Use_Case"":""INDH""}",Fully Executable,Published
CORE-000779,CG0376,TDSTOFF is not equal to zero or a positive value in ISO 8601 Duration format,TDSTOFF must be equal to 0 or a positive value in ISO 8601 Duration format,SDTMIG,"3.4, 3.2, 3.3","{""Classes"":{""Include"":[""TRIAL DESIGN""]},""Domains"":{""Include"":[""TD""]}}",Fully Executable,Published
CORE-000043,"CG0648, TIG0688",TP dataset is present.,Raise an error when TP dataset is present.,"SDTMIG, TIG","3.4, 1.0","{""Classes"":{""Include"":[""ALL""]},""Domains"":{""Include"":[""TP""]},""Use_Case"":""INDH""}",Fully Executable,Published
CORE-000042,"CG0647, TIG0687",TT dataset is present.,Raise an error when TT dataset is present.,"SDTMIG, TIG","3.4, 1.0","{""Classes"":{""Include"":[""ALL""]},""Domains"":{""Include"":[""TT""]},""Use_Case"":""INDH""}",Fully Executable,Published
CORE-000104,"CG0430, TIG0584","'--SCAT exists in a dataset, but --CAT does not exist.","Part A - Raise an error when --SCAT exists in a dataset, but --CAT does not exist.","SDTMIG, TIG","3.4, 3.2, 3.3, 1.0","{""Classes"":{""Include"":[""ALL""]},""Domains"":{""Include"":[""ALL""]},""Use_Case"":""INDH, PROD""}",Fully Executable,Published
CORE-000103,"CG0429, TIG0583",'--CAT should not be null when --SCAT is populated,"Part A - Raise an error when --SCAT is not empty, but --CAT is empty.","SDTMIG, TIG","3.4, 3.2, 3.3, 1.0","{""Classes"":{""Include"":[""ALL""]},""Domains"":{""Include"":[""ALL""]},""Use_Case"":""INDH, PROD""}",Fully Executable,Published
CORE-000778,CG0650,"Associated Persons non-supplemental qualifier dataset associated with a split dataset does not have a dataset name with a length greater than 4 and less than, or equal to, 6.","When an Associated Persons non-supplemental qualifier dataset is associated with a split dataset, the dataset name length must be greater than 4 and less than, or equal to, 6.",SDTMIG,"3.4, 3.2, 3.3","{""Classes"":{""Include"":[""ALL""]},""Domains"":{""Include"":[""AP--""],""include_split_datasets"":true}}",Fully Executable,Published
CORE-000777,CG0502,TM dataset is missing when RELMIDS variable is present in any of the dataset.,Raise an error when variable RELMIDS is present in any of the dataset and TM dataset is missing in a study.,SDTMIG,"3.4, 3.3","{""Classes"":{""Include"":[""ALL""]},""Domains"":{""Include"":[""ALL""]}}",Fully Executable,Published
CDISC.SDTMIG.CG0173,CG0173,"collected data fits a Qualifier variable listed in SDTM Sections 2.2.1, 2.2.2, or 2.2.3, and are represented in the Findings About domain, and the name of the variable is used as FATESTCD","Trigger error when collected data fits a Qualifier variable listed in SDTM Sections 2.2.1, 2.2.2, or 2.2.3, and are represented in the Findings About domain, and the name of the variable is used as FATESTCD",SDTMIG,"3.4, 3.2, 3.3","{""Classes"":{""Include"":[""ALL""]},""Domains"":{""Include"":[""ALL""]}}",Partially Executable - Possible Underreporting,Draft
CORE-000776,FB3203,The Study Day of End of Observation (--ENDY) is not present in the dataset when End Date/Time of Observation (--ENDTC) is present.,"Study Day of End (--ENDY) variable should be included into dataset, when End Study Date/Time (--ENDTC) variable is present.","SDTMIG, SENDIG, SENDIG-AR, SENDIG-DART, SENDIG-GENETOX","3.2, 3.3, 3.4, 3.0, 3.1, 3.1.1, 1.0, 1.1, 1.2","{""Classes"":{""Include"":[""INTERVENTIONS"",""EVENTS"",""FINDINGS"",""FINDINGS ABOUT"",""SPECIAL PURPOSE""]},""Domains"":{""Include"":[""ALL""]}}",Fully Executable,Published
CORE-000774,FB4202,"'--STAT = NOT DONE, but a reason is not provided","When a test is not done, the reason why should be populated.","SDTMIG, SENDIG, SENDIG-GENETOX, SENDIG-DART, SENDIG-AR","3.2, 3.3, 3.4, 3.0, 3.1, 3.1.1, 1.0, 1.1, 1.2","{""Classes"":{""Include"":[""FINDINGS"",""FINDINGS ABOUT""]},""Domains"":{""Include"":[""ALL""]}}",Partially Executable - Possible Overreporting,Published
CDISC.SDTMIG.CG0010,CG0010,"Metadata attribute of variable role does not equal the IG role for domain in IG, or model role (for custom domains)","Trigger warning when metadata attribute of variable role does not equal the IG role for domain in IG, or model role (for custom domains)",SDTMIG,"3.4, 3.2, 3.3","{""Classes"":{""Include"":[""ALL""]},""Domains"":{""Include"":[""ALL""]}}",Partially Executable - Possible Underreporting,Draft
CORE-000767,CG0603,"Parent record exists and --DECOD is not null, but FAOBJ is not equal to --DECOD.","When findings are collected, and the parent record exists and --DECOD is not null, FAOBJ should not be equal to --DECOD",SDTMIG,3.4,"{""Classes"":{""Exclude"":[""RELATIONSHIP""]},""Domains"":{""Include"":[""ALL""]}}",Fully Executable,Published
CORE-000766,CG0601,"Related record is present in the parent domain dataset and ""Other, specify"" value was coded.","When findings are collected, and the Events parent record exists and --DECOD is null, FAOBJ should not be equal to --TERM",SDTMIG,3.4,"{""Classes"":{""Include"":[""EVENTS""]},""Domains"":{""Include"":[""ALL""]}}",Fully Executable,Published
CORE-000765,FB2401,The submitted dataset is larger than 5 GB,The submitted dataset is larger than 5 GB,"SDTMIG, SENDIG, SENDIG-GENETOX, SENDIG-DART, SENDIG-AR","3.2, 3.3, 3.4, 3.0, 3.1, 3.1.1, 1.0, 1.1, 1.2","{""Classes"":{""Include"":[""ALL""]},""Domains"":{""Include"":[""ALL""]}}",Fully Executable,Published
,FB3801,Timing information is not submitted while it is collected,"Time point reference is not provided, when reference time point is used.","SDTMIG, SENDIG, SENDIG-GENETOX, SENDIG-DART, SENDIG-AR","3.2, 3.3, 3.4, 3.0, 3.1, 3.1.1, 1.0, 1.1, 1.2","{""Classes"":{""Include"":[""INTERVENTIONS"",""EVENTS"",""FINDINGS""]},""Domains"":{""Include"":[""ALL""]}}",Partially Executable,Draft
CDISC.SDTMIG.CG0437,CG0442,TSVAL is not a valid preferred term from FDA Substance Registration System (SRS),TSVAL is a valid preferred term from FDA Substance Registration System (SRS),SDTMIG,"3.2, 3.3","{""Classes"":{""Include"":[""TRIAL DESIGN""]},""Domains"":{""Include"":[""TS""]}}",Fully Executable,Draft
,FB1801,The length of the variable is longer than the data within the variable,The length of each variable cannot be different between datasets and should not be longer than the maximum length of the data contained by the variable,"SDTMIG, SENDIG, SENDIG-GENETOX, SENDIG-DART, SENDIG-AR","3.2, 3.3, 3.4, 3.0, 3.1, 3.1.1, 1.0, 1.1, 1.2","{""Classes"":{""Include"":[""ALL""]},""Domains"":{""Include"":[""ALL""]}}",Partially Executable,Draft
,FB1901,The length of the variable is longer than the data within the variable,All variables in each of the SUPPQUAL and RELREC datasets have a length that is not longer than the length of the longest value for that variable.,"SDTMIG, SENDIG, SENDIG-GENETOX, SENDIG-DART, SENDIG-AR","3.2, 3.3, 3.4, 3.0, 3.1, 3.1.1, 1.0, 1.1, 1.2","{""Classes"":{""Include"":[""RELATIONSHIP""]},""Domains"":{""Include"":[""ALL""]}}",Partially Executable,Draft
CDISC.SDTMIG.CG0437,CG0437,'--SOCCD is not a valid MedDRA primary system organ class code,Trigger error when --SOCCD is not a valid MedDRA primary system organ class code,SDTMIG,"3.2, 3.3, 3.4","{""Classes"":{""Include"":[""EVENTS""]},""Domains"":{""Include"":[""AE"",""MH"",""CE""]}}",Fully Executable,Draft
CDISC.SDTMIG.CG0436,CG0436,'--SOC is not a valid MedDRA primary system organ class,Trigger error when --SOC is not a valid MedDRA primary system organ class,SDTMIG,"3.2, 3.3, 3.4","{""Classes"":{""Include"":[""EVENTS""]},""Domains"":{""Include"":[""AE"",""MH"",""CE""]}}",Fully Executable,Draft
CORE-000763,"CG0232, TIG0441","'--STTPT is equal to the date of collection or assessment but --STRTPT is not in ('BEFORE', 'COINCIDENT',  'UNKNOWN').","Trigger error when --STRTPT is not in ('BEFORE', 'COINCIDENT', 'UNKNOWN')","SDTMIG, TIG","3.4, 3.2, 3.3, 1.0","{""Classes"":{""Include"":[""ALL""]},""Domains"":{""Include"":[""ALL""]},""Use_Case"":""INDH, PROD""}",Partially Executable,Published
CDISC.SDTMIG.CG0386,CG0386,'--BDSYCD is not a valid MedDRA system organ class code,Trigger error when --BDSYCD is not a valid MedDRA system organ class code,SDTMIG,"3.4, 3.2, 3.3","{""Classes"":{""Include"":[""EVENTS""]},""Domains"":{""Include"":[""AE"",""MH"",""CE""]}}",Fully Executable,Draft
CORE-000376,"CG0349, TIG0514",First 2 characters of prefixed variable within custom domain do not match the DOMAIN value.,Raise an error when the two first characters of a prefixed variable within a custom domain do not match the DOMAIN value.,"SDTMIG, TIG","3.4, 3.2, 3.3, 1.0","{""Classes"":{""Include"":[""FINDINGS"",""INTERVENTIONS"",""EVENTS""]},""Domains"":{""Include"":[""ALL""]},""Use_Case"":""INDH, PROD""}",Fully Executable,Published
CORE-000215,CG0539,More than 1 record exists per subject per EPOCH with DSCAT = 'DISPOSITION EVENT' and DSSCAT = 'STUDY TREATMENT'.,Trigger error when subject has more than one record per Epoch with DSCAT = 'DISPOSITION EVENT' and more than one record where DSSCAT = 'STUDY TREATMENT',SDTMIG,"3.4, 3.3","{""Classes"":{""Include"":[""EVENTS""]},""Domains"":{""Include"":[""DS""]}}",Fully Executable,Published
CORE-000214,"CG0538, TIG0631",More than 1 record exists per subject per EPOCH with DSCAT = 'DISPOSITION EVENT' and DSSCAT = 'STUDY PARTICIPATION'.,Trigger error when subject has more than one record per Epoch with DSCAT = 'DISPOSITION EVENT' and more than one record where DSSCAT = 'STUDY PARTICIPATION',"SDTMIG, TIG","3.4, 3.3, 1.0","{""Classes"":{""Include"":[""EVENTS""]},""Domains"":{""Include"":[""DS""]},""Use_Case"":""INDH""}",Fully Executable,Published
CORE-000761,CG0289,TSVCDVER is not a valid published version (date),Trigger error when TSVCDREF = 'CDISC' and TSVCDVER is not a valid published version (date),SDTMIG,"3.4, 3.2, 3.3","{""Classes"":{""Include"":[""TRIAL DESIGN""]},""Domains"":{""Include"":[""TS""]}}",Fully Executable,Published
CORE-000289,"CG0181, TIG0410",LBORRES is not a continuous measurement but LBORNRHI is not empty.,Raise an error when LBORRES is not a continuous measurement and LBORNRHI is not empty. The interpretation of the guidance is that LBORRES is populated (not null).,"SDTMIG, TIG","3.4, 3.2, 3.3, 1.0","{""Classes"":{""Include"":[""FINDINGS""]},""Domains"":{""Include"":[""LB""]},""Use_Case"":""INDH""}",Fully Executable,Published
CORE-000298,"CG0182, TIG0411",LBORRES is not a continuous measurment but LBSTNRLO is not empty.,Raise an error when LBORRES is not a continuous measurement and LBSTNRLO is not empty. The interpretation of the guidance is that LBORRES is populated (not null).,"SDTMIG, TIG","3.4, 3.2, 3.3, 1.0","{""Classes"":{""Include"":[""FINDINGS""]},""Domains"":{""Include"":[""LB""]},""Use_Case"":""INDH""}",Fully Executable,Published
CORE-000299,"CG0183, TIG0412",LBORRES is not a continuous measurement but LBSTNRHI is not empty.,Raise an error when LBORRES is not a continuous measurement and LBSTNRHI is not empty. The interpretation of the guidance is that LBORRES is populated (not null).,"SDTMIG, TIG","3.4, 3.2, 3.3, 1.0","{""Classes"":{""Include"":[""FINDINGS""]},""Domains"":{""Include"":[""LB""]},""Use_Case"":""INDH""}",Fully Executable,Published
CDISC.SDTMIG.CG0312,CG0312,Custom domains use the reserved or modelled standard names.,Raise an error when custom domains use the reserved or modelled standard names,SDTMIG,"3.4, 3.2, 3.3","{""Classes"":{""Include"":[""ALL""]},""Domains"":{""Include"":[""ALL""]}}",Fully Executable,Draft
CDISC.SDTMIG.CG0155,CG0155,AP Core Domain should start with 'AP' and length should be equal to 4.,Raise error if domain name begins with AP and length of domain variable is not 4,SDTMIG,"3.2, 3.3","{""Classes"":{""Include"":[""ALL""]},""Domains"":{""Exclude"":[""APRELSUB"",""POOLDEF"",""FA""],""Include"":[""AP--""]}}",Fully Executable,Draft
CDISC.SDTMIG.CG0015,CG0015,Variable Core Status = Permissible and data is collected,Variable Core Status = Permissible and data is collected,SDTMIG,"3.2, 3.3, 3.4","{""Classes"":{""Include"":[""ALL""]},""Domains"":{""Include"":[""ALL""]}}",Fully Executable,Draft
CORE-000760,FB3413,RFCSTDTC is greater than RFCENDTC,Date/Time of First Challenge Agent Admin (RFCSTDTC) variable value must be less than or equal to Date/Time of Last Challenge Agent Admin (RFCENDTC).,"SDTMIG, SENDIG-AR","3.4, 1.0","{""Classes"":{""Include"":[""SPECIAL PURPOSE""]},""Domains"":{""Include"":[""DM""]}}",Fully Executable,Published
CORE-000290,"CG0180, TIG0409",LBORRES is not a continuous measurement but LBORNRLO is not empty.,Raise an error when LBORRES ^= continuous measurement and LBORNRLO is not empty. The interpretation of the guidance is that LBORRES is populated (not null).,"SDTMIG, TIG","3.4, 3.2, 3.3, 1.0","{""Classes"":{""Include"":[""FINDINGS""]},""Domains"":{""Include"":[""LB""]},""Use_Case"":""INDH""}",Fully Executable,Published
CDISC.SDTMIG.CG0431,CG0431,"Variable is empty, where variable core status is expected and data is collected.","Raise an error when variable Core Status = Expected and data is collected, but variable is not present",SDTMIG,"3.4, 3.2, 3.3","{""Classes"":{""Include"":[""ALL""]},""Domains"":{""Include"":[""ALL""]}}",Fully Executable,Draft
CORE-000758,"CG0534, TIG0627","Milestone associated with RFSTDTC is start of treatment and ARMNRS is not null and different from 'UNPLANNED TREATMENT', but RFSTDTC is not empty.","Raise an error when milestone associated with RFSTDTC is start of treatment and ARMNRS is not null and different from 'UNPLANNED TREATMENT', but RFSTDTC is not null.","SDTMIG, TIG","3.3, 3.4, 1.0","{""Classes"":{""Include"":[""SPECIAL PURPOSE""]},""Domains"":{""Include"":[""DM""]},""Use_Case"":""INDH""}",Partially Executable,Published
CORE-000757,"CG0602, TIG0656","Interventions parent record exists and --DECOD = null, but FAOBJ is not equal to --TRT.","When findings are collected about an intervention, and the interventions parent record exists and --DECOD = null, FAOBJ should be equal to --TRT.","SDTMIG, TIG","3.4, 1.0","{""Classes"":{""Include"":[""INTERVENTIONS""]},""Domains"":{""Include"":[""ALL""]},""Use_Case"":""INDH""}",Fully Executable,Published
CORE-000107,"CG0554, TIG0642","An appropriate identifier is not present; USUBJID, APID, SPDEVID, SPTOBID, POOLID, SPTOBID, STOCONID should be present.","APID is required in all Associated Persons Data. In addition to STUDYID, DOMAIN, and --SEQ being required for all domains based on one of the 3 general observation classes, one of USUBJID, APID, SPDEVID, or POOLID must also be present.","SDTMIG, TIG","3.4, 3.3, 1.0","{""Classes"":{""Include"":[""ALL""]},""Domains"":{""Include"":[""ALL""]},""Use_Case"":""INDH, PROD""}",Fully Executable,Published
CORE-000553,"CG0222, TIG0436",'--ENDY is not properly calculated per study day algorithm,Study day must be calculated using the algorithm detailed in the SDTMIG.,"SDTMIG, TIG","3.4, 3.2, 3.3, 1.0","{""Classes"":{""Include"":[""ALL""]},""Domains"":{""Exclude"":[""DM""]},""Use_Case"":""INDH""}",Fully Executable,Published
CORE-000552,"CG0220, TIG0434",'--STDY is not properly calculated per study day algorithm,Study day must be calculated using the algorithm detailed in the SDTMIG.,"SDTMIG, TIG","3.4, 3.2, 3.3, 1.0","{""Classes"":{""Include"":[""ALL""]},""Domains"":{""Exclude"":[""DM""]},""Use_Case"":""INDH""}",Fully Executable,Published
CORE-000169,"CG0185, TIG0414",Verify that LBTOXGR value is not from a numeric scale,Raise a warning when LBTOXGR is not numeric,"SDTMIG, TIG","3.4, 3.2, 3.3, 1.0","{""Classes"":{""Include"":[""FINDINGS""]},""Domains"":{""Include"":[""LB""]},""Use_Case"":""INDH""}",Fully Executable,Published
CORE-000173,"CG0414, TIG0569",ETCD is not equal to 'UNPLAN' and not equal to TE.ETCD,Raise an error when ETCD is not equal to 'UNPLAN' and not equal to TE.ETCD,"SDTMIG, TIG","3.4, 3.3, 3.2, 1.0","{""Classes"":{""Include"":[""SPECIAL PURPOSE"",""TRIAL DESIGN""]},""Domains"":{""Include"":[""SE"",""TA""]},""Use_Case"":""INDH""}",Fully Executable,Published
CORE-000747,FB6001,Haitin or Negro was collected in CRACE but RACE does not have the value as BLACK OR AFRICAN AMERICAN,"""Haitian or Negro"" was collected and was not mapped as ""BLACK OR AFRICAN AMERICAN"" in DM domain RACE.",SDTMIG,"3.2, 3.3, 3.4","{""Classes"":{""Include"":[""SPECIAL PURPOSE"",""RELATIONSHIP""]},""Domains"":{""Include"":[""DM""]}}",Fully Executable,Published
CORE-000612,FB7001,Standardized units are not consistent for a given drug or metabolite across pharmacokinetic datasets within a submission. ,Standardized units should be consistent for a given drug or metabolite across pharmacokinetic datasets within a submission,"SDTMIG, SENDIG, SENDIG-GENETOX, SENDIG-DART, SENDIG-AR","3.2, 3.3, 3.4, 3.0, 3.1, 3.1.1, 1.0, 1.1, 1.2","{""Classes"":{""Include"":[""FINDINGS""]},""Domains"":{""Include"":[""PP"",""PC""]}}",Fully Executable,Published
CORE-000685,"CG0571, FB0923",'--TPT and --TPTNUM do not have a one-to-one relationship per unique value of VISITNUM,"Raise an error when VISITNUM is present in the dataset and --TPTREF is not present in the dataset, and --TPT and --TPTNUM do not have a one-to-one relationship per unique value of VISITNUM",SDTMIG,"3.2, 3.3, 3.4","{""Classes"":{""Include"":[""ALL""]},""Domains"":{""Include"":[""ALL""]}}",Fully Executable,Published
CORE-000686,"CG0572, FB0924",'--TPT and --TPTNUM do not have a one-to-one relationship per unique value of --TPTREF,"Raise an error when VISITNUM is not present in the dataset and --TPTREF is present in the dataset, and --TPT and --TPTNUM do not have a one-to-one relationship per unique value of --TPTREF",SDTMIG,"3.2, 3.3, 3.4","{""Classes"":{""Include"":[""ALL""]},""Domains"":{""Include"":[""ALL""]}}",Fully Executable,Published
CORE-000689,"CG0573, FB0925",'--TPT and --TPTNUM do not have a one-to-one relationship per unique combination of VISITNUM and --TPTREF values,Raise an error when VISITNUM and --TPTREF are present and --TPT and --TPTNUM does not have a one-to-one relationship per unique combination of VISITNUM and --TPTREF values,SDTMIG,"3.2, 3.3, 3.4","{""Classes"":{""Include"":[""ALL""]},""Domains"":{""Include"":[""ALL""]}}",Fully Executable,Published
CORE-000136,"CG0201, TIG0422","IDVARVAL and USUBJID are not completed, but IDVAR equals Sequence Number.",Raise an error when IDVARVAL and USUBJID are empty and IDVAR = Sequence Number.,"SDTMIG, TIG","3.4, 3.3, 3.2, 1.0","{""Classes"":{""Include"":[""RELATIONSHIP""]},""Domains"":{""Include"":[""RELREC""]},""Use_Case"":""INDH, PROD""}",Fully Executable,Published
CORE-000746,FB5801,"Ethnicity(CETHNIC) has been collected as ""Spanish origin"" but the values in DM is not mapped to ""HISPANIC OR LATINO""","When Ethnicity (CETHNIC) ""Spanish origin"" was collected and was not mapped as ""HISPANIC OR LATINO"" in DM domain's RACE.",SDTMIG,"3.2, 3.3, 3.4","{""Classes"":{""Include"":[""SPECIAL PURPOSE"",""RELATIONSHIP""]},""Domains"":{""Include"":[""DM""]}}",Fully Executable,Published
CORE-000745,FB0915,OIPARMCD and OIPARM do not have a one-to-one relationship,There must be a one-to-one relationship between OIPARMCD and OIPARM,SDTMIG,"3.2, 3.3, 3.4","{""Classes"":{""Include"":[""STUDY REFERENCE""]},""Domains"":{""Include"":[""OI""]}}",Fully Executable,Published
CORE-000744,"CG0174, TIG0403","Related record is present in the parent domain dataset but FAOBJ is not equal to the ""TERM"", ""TRT"" or ""DECOD"" of the parent domain.","Raise an error when a related record is present in the parent domain dataset but FAOBJ is not equal to the --TERM, --TRT or --DECOD of the parent domain.","SDTMIG, TIG","3.4, 3.3, 3.2, 1.0","{""Classes"":{""Include"":[""FINDINGS ABOUT""]},""Domains"":{""Include"":[""FA""]},""Use_Case"":""INDH""}",Fully Executable,Published
CORE-000198,"CG0340, TIG0505",'--SCAT is equal to --BODSYS.,Raise an error when --SCAT = --BODSYS.,"SDTMIG, TIG","3.4, 3.3, 3.2, 1.0","{""Classes"":{""Include"":[""EVENTS""]},""Domains"":{""Include"":[""ALL""]},""Use_Case"":""INDH""}",Fully Executable,Published
CORE-000197,"CG0339, TIG0504",'--CAT is equal to --BODSYS.,Raise an error when --CAT = --BODSYS.,"SDTMIG, TIG","3.4, 3.3, 3.2, 1.0","{""Classes"":{""Include"":[""EVENTS""]},""Domains"":{""Include"":[""ALL""]},""Use_Case"":""INDH""}",Fully Executable,Published
CORE-000143,"CG0246, SEND24, TIG0450, TIG0165",ETCD value is greater than 8,The length of ETCD should be no greater than 8,"SDTMIG, SENDIG, SENDIG-DART, SENDIG-GENETOX, TIG","3.4, 3.3, 3.2, 3.0, 3.1, 3.1.1, 1.1, 1.2, 1.0","{""Classes"":{""Include"":[""TRIAL DESIGN"",""SPECIAL PURPOSE""]},""Domains"":{""Include"":[""TA"",""TE"",""SE""]},""Use_Case"":""INDH, NONCLIN""}",Fully Executable,Published
CORE-000027,"CG0328, TIG0496, CG0329, TIG0497, SEND214, TIG0141",At least one of TEENRL and TEDUR must be populated.,Either TEENRL or TEDUR must be present for each Element.,"SDTMIG, TIG, SENDIG, SENDIG-DART, SENDIG-GENETOX","3.4, 3.2, 3.3, 1.0, 3.0, 3.1, 3.1.1, 1.1, 1.2","{""Classes"":{""Include"":[""TRIAL DESIGN""]},""Domains"":{""Include"":[""TE""]},""Use_Case"":""INDH, NONCLIN""}",Fully Executable,Published
CORE-000743,FB0918,IETESTCD and IETEST do not have a one-to-one relationship,There must be a one-to-one relationship between IETESTCD and IETEST,SDTMIG,"3.2, 3.3, 3.4","{""Classes"":{""Include"":[""TRIAL DESIGN""]},""Domains"":{""Include"":[""TI""]}}",Fully Executable,Published
,FB0405,Dataset LB is missing,"Define.xml does not contain ItemGroupDef for the respective Domain with attribute def:HasNoData marked as ""Yes""",SDTMIG,"3.2, 3.3, 3.4","{""Classes"":{""Include"":[""ALL""]},""Domains"":{""Include"":[""ALL""]}}",Fully Executable,Draft
,FB1112,The count of occurrences of TSPARAMCD = PCLASS is in the list of TSPARAMCD with TSVAL populated is gt 1.,The count of occurrences of TSPARAMCD = PCLASS is in the list of TSPARAMCD with TSVAL populated is gt 1.,SDTMIG,"3.2, 3.3, 3.4","{""Classes"":{""Include"":[""TRIAL DESIGN""]},""Domains"":{""Include"":[""TS""]}}",Partially Executable,Draft
CORE-000204,"CG0410, TIG0566",Scheduled or Contingent visit is not unique within subject,"When VISITNUM is present in TV.VISITNUM, SV.VISITNUM must be unique within subject","SDTMIG, TIG","3.4, 3.2, 3.3, 1.0","{""Classes"":{""Include"":[""ALL""]},""Domains"":{""Include"":[""SV""]},""Use_Case"":""INDH""}",Fully Executable,Published
CORE-000742,FB1110,TSVALNF is not equal to NA when TSPARAMCD=INDIC,TSVALNF is not equal to NA when TSPARAMCD=INDIC,SDTMIG,"3.2, 3.3, 3.4","{""Classes"":{""Include"":[""TRIAL DESIGN""]},""Domains"":{""Include"":[""TS""]}}",Fully Executable,Published
CORE-000070,"CG0643, TIG0684",STRAIN is present.,Raise an error when STRAIN is present.,"SDTMIG, TIG","3.4, 1.0","{""Classes"":{""Include"":[""SPECIAL PURPOSE""]},""Domains"":{""Include"":[""DM""]},""Use_Case"":""INDH""}",Fully Executable,Published
,FB1109,"The set (EGBLIND, EGCTMON, EGLEADPR, EGLEADSM, EGRDMETH, EGREPLBL, EGREPLTR, EGTWVALG) is included in the list of TSPARAMCD with TSVAL populated.","The set (EGBLIND, EGCTMON, EGLEADPR, EGLEADSM, EGRDMETH, EGREPLBL, EGREPLTR, EGTWVALG) is included in the list of TSPARAMCD with TSVAL populated.",SDTMIG,"3.2, 3.3, 3.4","{""Classes"":{""Include"":[""ALL""]},""Domains"":{""Include"":[""ALL""]}}",Fully Executable,Draft
CORE-000572,"CG0235, TIG0444","'--ENRTPT is not in ('BEFORE', 'COINCIDENT', 'ONGOING', 'AFTER', 'UNKNOWN')","Trigger error when --ENRTPT is not in ('BEFORE', 'COINCIDENT', 'ONGOING', 'AFTER', 'UNKNOWN')","SDTMIG, TIG","3.4, 3.2, 3.3, 1.0","{""Classes"":{""Include"":[""ALL""]},""Domains"":{""Include"":[""ALL""]},""Use_Case"":""INDH, PROD""}",Partially Executable,Published
CORE-000710,"CG0233, TIG0442","'--STRTPT is not in ('BEFORE', 'COINCIDENT', 'AFTER', 'UNKNOWN')","Trigger error when --STRTPT is not in ('BEFORE', 'COINCIDENT', 'AFTER', 'UNKNOWN') and --STTPT is prior to the date of collection or assessment.","SDTMIG, TIG","3.4, 3.2, 3.3, 1.0","{""Classes"":{""Include"":[""ALL""]},""Domains"":{""Include"":[""ALL""]},""Use_Case"":""INDH, PROD""}",Partially Executable,Published
CORE-000184,"CG0083, TIG0348",There is not a one-to-one relationship between --BODSYS and --BDSYSCD,There must be a one-to-one relationship between --BDSYSCD and --BODSYS,"SDTMIG, TIG","3.4, 3.3, 3.2, 1.0","{""Classes"":{""Include"":[""EVENTS""]},""Domains"":{""Include"":[""ALL""]},""Use_Case"":""INDH""}",Fully Executable,Published
CORE-000741,FB1111,"The set  ('INTMODEL’, 'INTTYPE','PCLASS') is not in the list of TSPARAMCD with TSVAL populated.","The set  ('INTMODEL’, 'INTTYPE','PCLASS') is not in the list of TSPARAMCD with TSVAL populated.",SDTMIG,"3.2, 3.3, 3.4","{""Classes"":{""Include"":[""TRIAL DESIGN""]},""Domains"":{""Include"":[""TS""]}}",Fully Executable,Published
CORE-000740,CG0287,A required value of TSPARMCD is not found,A required value of TSPARMCD is not found,SDTMIG,"3.2, 3.3","{""Classes"":{""Include"":[""TRIAL DESIGN""]},""Domains"":{""Include"":[""TS""]}}",Fully Executable,Published
CORE-000140,"CG0225, TIG0438",VISITDY is not null when VISITNUM is not in TV.VISITNUM,Trigger error if VISITDY is populated when VISITNUM is not in TV.,"SDTMIG, TIG","3.4, 3.3, 3.2, 1.0","{""Classes"":{""Include"":[""ALL""]},""Domains"":{""Include"":[""ALL""]},""Use_Case"":""INDH""}",Fully Executable,Published
CORE-000739,CG0407,EX is not present in study when study includes protocol-specified study treatment,Trigger error when study includes protocol-specified study treatment and EX is not present,SDTMIG,"3.4, 3.2, 3.3","{""Classes"":{""Include"":[""ALL""]},""Domains"":{""Include"":[""ALL""]}}",Fully Executable,Published
,FB1108,TSPARAMCD=DCUTDESC and TSPARAMCD=DCUTDTC do not share the same TSGRPID and TSVAL values.,TSPARAMCD=DCUTDESC and TSPARAMCD=DCUTDTC do not share the same TSGRPID and TSVAL values.,SDTMIG,"3.2, 3.3, 3.4","{""Classes"":{""Include"":[""ALL""]},""Domains"":{""Include"":[""ALL""]}}",Fully Executable,Draft
CORE-000195,"CG0338, TIG0503",'--SCAT is equal to --DECOD.,Raise an error when --SCAT = --DECOD.,"SDTMIG, TIG","3.4, 3.3, 3.2, 1.0","{""Classes"":{""Include"":[""EVENTS""]},""Domains"":{""Include"":[""ALL""]},""Use_Case"":""INDH""}",Fully Executable,Published
CORE-000196,"CG0337, TIG0502",'--CAT is equal to --DECOD.,Raise an error when --CAT = --DECOD.,"SDTMIG, TIG","3.4, 3.3, 3.2, 1.0","{""Classes"":{""Include"":[""EVENTS""]},""Domains"":{""Include"":[""ALL""]},""Use_Case"":""INDH""}",Fully Executable,Published
CORE-000075,"CG0304, TIG0481",AEREASND is present.,Raise an error when AEREASND is present.,"SDTMIG, TIG","3.4, 3.2, 3.3, 1.0","{""Classes"":{""Include"":[""EVENTS""]},""Domains"":{""Include"":[""AE""]},""Use_Case"":""INDH""}",Fully Executable,Published
CORE-000100,"CG0423, TIG0578","Missing --TRTV value, when --VAMT value is populated.","Raise an error when --VAMT is not empty, but --TRTV is empty.","SDTMIG, TIG","3.4, 3.2, 3.3, 1.0","{""Classes"":{""Include"":[""INTERVENTIONS""]},""Domains"":{""Include"":[""ALL""]},""Use_Case"":""INDH""}",Fully Executable,Published
CORE-000102,"CG0428, TIG0582",'--TOXGR should not be null when --TOX is populated.,"Raise an error when --TOX is not empty, but --TOXGR is empty.","SDTMIG, TIG","3.4, 3.2, 3.3, 1.0","{""Classes"":{""Include"":[""EVENTS"",""FINDINGS""]},""Domains"":{""Include"":[""AE"",""MH"",""CE"",""EG"",""LB"",""PC"",""PP""]},""Use_Case"":""INDH""}",Fully Executable,Published
CORE-000007,"CG0435, TIG0587, FB0606","DTHFL is not ""Y"", when DTHDTC is populated","When a DTHDTC is populated in DM domain, death flag is populated as Y in DM dataset for corresponding subject","SDTMIG, TIG","3.4, 3.2, 3.3, 1.0","{""Classes"":{""Include"":[""SPECIAL PURPOSE""]},""Domains"":{""Include"":[""DM""]},""Use_Case"":""INDH""}",Fully Executable,Published
CORE-000083,"CG0553, TIG0641","'--ORRES is missing even though --LOBXFL= ""Y"" and either --DRVFL is not present in dataset or is not equal to ""Y""",Verify that --ORRES is not null when --LOBXFL = Y and --DRVFL= null or --DRVFL is not present in the dataset,"SDTMIG, TIG","3.4, 3.3, 1.0","{""Classes"":{""Include"":[""FINDINGS""]},""Domains"":{""Include"":[""ALL""]},""Use_Case"":""INDH""}",Fully Executable,Published
CORE-000105,"CG0569, TIG0653","'--LOBXFL = 'Y', but --STRESC is empty.",Raise an error when --LOBXFL = 'Y' and --STRESC is empty.,"SDTMIG, TIG","3.4, 3.3, 1.0","{""Classes"":{""Include"":[""FINDINGS""]},""Domains"":{""Include"":[""ALL""]},""Use_Case"":""INDH""}",Fully Executable,Published
CORE-000068,"CG0641, TIG0682",AGETXT is present.,Raise an error when AGETXT is present.,"SDTMIG, TIG","3.4, 1.0","{""Classes"":{""Include"":[""SPECIAL PURPOSE""]},""Domains"":{""Include"":[""DM""]},""Use_Case"":""INDH""}",Fully Executable,Published
CORE-000069,"CG0642, TIG0683",SPECIES is present.,Raise an error when SPECIES is present.,"SDTMIG, TIG","3.4, 1.0","{""Classes"":{""Include"":[""SPECIAL PURPOSE""]},""Domains"":{""Include"":[""DM""]},""Use_Case"":""INDH""}",Fully Executable,Published
CORE-000071,"CG0644, TIG0685",SBSTRAIN is present.,Raise an error when SBSTRAIN is present.,"SDTMIG, TIG","3.4, 1.0","{""Classes"":{""Include"":[""SPECIAL PURPOSE""]},""Domains"":{""Include"":[""DM""]},""Use_Case"":""INDH""}",Fully Executable,Published
CORE-000170,"CG0541, TIG0634",Value of --LOBXFL must be 'Y' or null,Raise an error when --LOBXFL is not 'Y' or null,"SDTMIG, TIG","3.4, 3.3, 1.0","{""Classes"":{""Include"":[""FINDINGS""]},""Domains"":{""Include"":[""ALL""]},""Use_Case"":""INDH""}",Fully Executable,Published
CORE-000597,"CG0043, TIG0322",Missing AESMIE=Y where SUPPAE.QNAM=AESOSP,"When SUPPAE.QNAM=AESOSP is present, a record with AESMIE=Y should be present","SDTMIG, TIG","3.4, 3.2, 3.3, 1.0","{""Classes"":{""Include"":[""EVENTS""]},""Domains"":{""Include"":[""AE""]},""Use_Case"":""INDH""}",Fully Executable,Published
CORE-000009,"CG0152, SEND124.1, TIG0393, TIG0061",ELEMENT variable has a non-null value when ETCD has a value of 'UNPLAN',Verify that ELEMENT value is blank when ETCD is equal to UNPLAN,"SDTMIG, SENDIG, SENDIG-DART, SENDIG-GENETOX, TIG","3.4, 3.2, 3.3, 3.0, 3.1, 3.1.1, 1.1, 1.2, 1.0","{""Classes"":{""Include"":[""SPECIAL PURPOSE""]},""Domains"":{""Include"":[""SE""]},""Use_Case"":""INDH, NONCLIN""}",Fully Executable,Published
CORE-000736,FB1116,AGE and AGETXT are in the list of TSPARAMCDs with TSVAL populated.,"Either AGE or AGETXT is in the list of TSPARMCDs with TSVAL populated, not both.",SDTMIG,"3.3, 3.4","{""Classes"":{""Include"":[""TRIAL DESIGN""]},""Domains"":{""Include"":[""TS""]}}",Fully Executable,Published
CORE-000370,"CG0143, TIG0387","DM.RFICDTC is not equal to the earliest DSSTDTC, when DSTERM indicates Informed consent obtained.",DM.RFICDTC must equal the earliest DS.DSSTDTC when DSTERM indicates informed consent obtained.,"SDTMIG, TIG","3.4, 3.2, 3.3, 1.0","{""Classes"":{""Include"":[""EVENTS""]},""Domains"":{""Include"":[""DS""]},""Use_Case"":""INDH""}",Fully Executable,Published
CORE-000735,CG0444,"Throw error when TSPARMCD is equal to COMPTRT, CURTRT, or TRT and TSVCDREF ^= UNII","When TSPARMCD is equal to COMPTRT, CURTRT or TRT, TSVCDREF should equal UNII",SDTMIG,"3.2, 3.3","{""Classes"":{""Include"":[""TRIAL DESIGN""]},""Domains"":{""Include"":[""TS""]}}",Fully Executable,Published
CORE-000192,"CG0530, TIG0623",RFENDTC is not blank when ARMNRS is provided.,Raise an error when ARMNRS is not blank and RFENDTC is provided.,"SDTMIG, TIG","3.4, 3.3, 1.0","{""Classes"":{""Include"":[""SPECIAL PURPOSE""]},""Domains"":{""Include"":[""DM""]},""Use_Case"":""INDH""}",Fully Executable,Published
CORE-000121,"CG0520, TIG0615","Value for ARMNRS is populated, when both ARMCD and ACTARMCD values are populated","Verify the value for ARMNRS, when both ARMCD and ACTARMCD values are populated","SDTMIG, TIG","3.4, 3.3, 1.0","{""Classes"":{""Include"":[""SPECIAL PURPOSE""]},""Domains"":{""Include"":[""DM""]},""Use_Case"":""INDH""}",Fully Executable,Published
CORE-000046,"CG0519, TIG0614",ARMNRS is missing when ARM value is missing,Verify ARMNRS is not null when ARM is null,"SDTMIG, TIG","3.4, 3.3, 1.0","{""Classes"":{""Include"":[""SPECIAL PURPOSE""]},""Domains"":{""Include"":[""DM""]},""Use_Case"":""INDH""}",Fully Executable,Published
CORE-000024,"CG0082, TIG0347",'--BODSYS is not empty and --BDSYCD is empty,"Raise an error if --BODSYS is not empty, --BDSYCD is empty","SDTMIG, TIG","3.4, 3.3, 3.2, 1.0","{""Classes"":{""Include"":[""EVENTS""]},""Domains"":{""Include"":[""ALL""]},""Use_Case"":""INDH""}",Fully Executable,Published
CORE-000045,"CG0517, TIG0612",ARMNRS value is missing when ARMCD value is missing,Verify ARMNRS is not null when ARMCD is null,"SDTMIG, TIG","3.4, 3.3, 1.0","{""Classes"":{""Include"":[""SPECIAL PURPOSE""]},""Domains"":{""Include"":[""DM""]},""Use_Case"":""INDH""}",Fully Executable,Published
CORE-000012,"CG0040, TIG0319",AEOCCUR is present in AE dataset.,Raise an error when AEOCCUR exists in AE dataset.,"SDTMIG, TIG","3.4, 3.3, 3.2, 1.0","{""Classes"":{""Include"":[""EVENTS""]},""Domains"":{""Include"":[""AE""]},""Use_Case"":""INDH""}",Fully Executable,Published
CORE-000357,"CG0018, TIG0303",Supplemental qualifier dataset associated with a split dataset is greater than 8 characters in length,"When a supplemental qualifier dataset is associated with a split dataset, the dataset name length must not be greater than 8 characters.","SDTMIG, TIG","3.4, 3.2, 3.3, 1.0","{""Classes"":{""Include"":[""ALL""]},""Domains"":{""Include"":[""SUPP--""],""include_split_datasets"":true},""Use_Case"":""INDH, PROD""}",Fully Executable,Published
CORE-000224,"CG0515, TIG0610","ACTARM is empty, but ARMNRS is not completed.",Raise an error when ACTARM is empty and ARMNRS is not completed.,"SDTMIG, TIG","3.4, 3.3, 1.0","{""Classes"":{""Include"":[""SPECIAL PURPOSE""]},""Domains"":{""Include"":[""DM""]},""Use_Case"":""INDH""}",Fully Executable,Published
CORE-000223,"CG0513, TIG0608","ACTARMCD is empty, but ARMNRS is not completed.",Raise an error when ACTARMCD is empty and ARMNRS is not completed.,"SDTMIG, TIG","3.4, 3.3, 1.0","{""Classes"":{""Include"":[""SPECIAL PURPOSE""]},""Domains"":{""Include"":[""DM""]},""Use_Case"":""INDH""}",Fully Executable,Published
CORE-000217,"CG0462, TIG0592","ECDOSE is empty, ECOCCUR is not equal to 'N' and ECSTAT is empty, but ECDOSTXT is also empty.","Raise an error when ECDOSE is empty, ECOCCUR is not equal to 'N', ECSTAT is empty and ECDOSTXT is empty","SDTMIG, TIG","3.4, 3.3, 3.2, 1.0","{""Classes"":{""Include"":[""INTERVENTIONS""]},""Domains"":{""Include"":[""EC""]},""Use_Case"":""INDH""}",Fully Executable,Published
CORE-000178,CG0172,"SSSTRESC = 'DEAD', but SSDTC < max DS.DSSTDTC.",Raise an error when SSSTRESC = 'DEAD' and SSDTC < max DS.DSSTDTC.,SDTMIG,"3.4, 3.3, 3.2","{""Classes"":{""Include"":[""FINDINGS""]},""Domains"":{""Include"":[""SS""]}}",Fully Executable,Published
CORE-000733,CG0281,TSPARMCD = RANDQT record is not present,At least one observation where TSPARMCD = TRT is present and there is only one investigational treatment,SDTMIG,"3.2, 3.3","{""Classes"":{""Include"":[""TRIAL DESIGN""]},""Domains"":{""Include"":[""TS""]}}",Fully Executable,Published
CORE-000187,"CG0168, TIG0400",CODTC is populated when IDVAR is also populated,Trigger error when IDVAR is not null and CODTC is not null,"SDTMIG, TIG","3.4, 3.2, 3.3, 1.0","{""Classes"":{""Include"":[""SPECIAL PURPOSE""]},""Domains"":{""Include"":[""CO""]},""Use_Case"":""INDH""}",Fully Executable,Published
CORE-000729,FB0912,INVNAM and INVID do not have a one-to-one relationship,There must be a one-to-one relationship between INVNAM and INVID,SDTMIG,"3.2, 3.3, 3.4","{""Classes"":{""Include"":[""SPECIAL PURPOSE""]},""Domains"":{""Include"":[""DM""]}}",Fully Executable,Published
CORE-000251,"CG0067, FB0614","DSDECOD is not ""DEATH"", When SS.SSSTRESC = ""DEAD"".","When SS.SSSTRESC = ""DEAD"", the final disposition record must have DSDECOD ^= ""DEATH"".",SDTMIG,"3.4, 3.3, 3.2","{""Classes"":{""Include"":[""FINDINGS""]},""Domains"":{""Include"":[""SS""]}}",Fully Executable,Published
CORE-000017,"CG0166, TIG0398",RDOMAIN has a missing value when IDVARVAL has a non-missing value,Verify RDOMAIN is not null when IDVARVAL is not null,"SDTMIG, TIG","3.4, 3.2, 3.3, 1.0","{""Classes"":{""Include"":[""SPECIAL PURPOSE""]},""Domains"":{""Include"":[""CO""]},""Use_Case"":""INDH""}",Fully Executable,Published
CORE-000158,"CG0163, TIG0396","IDVAR should not be missing when RDOMAIN is not in (empty, DM).",IDVAR must be specified.,"SDTMIG, TIG","3.4, 3.2, 3.3, 1.0","{""Classes"":{""Include"":[""SPECIAL PURPOSE""]},""Domains"":{""Include"":[""CO""]},""Use_Case"":""INDH""}",Fully Executable,Published
CORE-000090,"CG0164, TIG0397",RDOMAIN has a missing value but IDVAR has a non-missing value,Verify IDVAR is null when RDOMAIN is null,"SDTMIG, TIG","3.4, 3.2, 3.3, 1.0","{""Classes"":{""Include"":[""SPECIAL PURPOSE""]},""Domains"":{""Include"":[""CO""]},""Use_Case"":""INDH""}",Fully Executable,Published
CORE-000337,"CG0140, TIG0386","Multiple races are collected in SUPPDM but RACE in DM does not equal ""MULTIPLE"".","Raise an error when multiple races are collected in SUPPDM but RACE in DM does not equal ""MULTIPLE"".","SDTMIG, TIG","3.2, 3.3, 3.4, 1.0","{""Classes"":{""Include"":[""ALL""]},""Domains"":{""Include"":[""SUPPDM""]},""Use_Case"":""INDH""}",Fully Executable,Published
CORE-000291,"CG0105, TIG0370",EXVAMT is present when EC exists.,"When EC exists, EXVAMT should not be used.","SDTMIG, TIG","3.4, 3.3, 3.2, 1.0","{""Classes"":{""Include"":[""INTERVENTIONS""]},""Domains"":{""Include"":[""EX""]},""Use_Case"":""INDH""}",Fully Executable,Published
CORE-000585,CG0313,"One of following variables is not present in the dataset; STUDYID, DOMAIN, USUBJID (or POOLID) or --SEQ.","Raise an error when one of the following variables; STUDYID, DOMAIN, USUBJID (or POOLID) or --SEQ is not present in the dataset.",SDTMIG,3.2,"{""Classes"":{""Include"":[""INTERVENTIONS"",""EVENTS"",""FINDINGS""]},""Domains"":{""Include"":[""ALL""]}}",Fully Executable,Published
CORE-000200,"CG0348, TIG0513",'--ORRES cannot be null when --STAT is null or --DRVFL not equal to 'Y',Verify that --ORRES is not missing when either --STAT is null or --DRVFL not equal to 'Y',"SDTMIG, TIG","3.4, 3.2, 3.3, 1.0","{""Classes"":{""Include"":[""FINDINGS""]},""Domains"":{""Include"":[""ALL""]},""Use_Case"":""INDH, PROD""}",Fully Executable,Published
CORE-000571,"CG0024, TIG0307",LNKID variable is only found in one domain.,Verify that when --LNKID is present in one domain it is also present in another domain.,"SDTMIG, TIG","3.4, 3.3, 3.2, 1.0","{""Classes"":{""Include"":[""ALL""]},""Domains"":{""Include"":[""ALL""]},""Use_Case"":""INDH, PROD""}",Fully Executable,Published
CORE-000358,"CG0022, TIG0306",LNKGRP variable is not found in any of the other domains.,Verify that when --LNKGRP is present in one domain it is also present in another domain.,"SDTMIG, TIG","3.4, 3.3, 3.2, 1.0","{""Classes"":{""Include"":[""ALL""]},""Domains"":{""Include"":[""ALL""]},""Use_Case"":""INDH, PROD""}",Fully Executable,Published
CORE-000725,FB0909,AEPTCD and AEDECOD do not have a one-to-one relationship,There must be a one-to-one relationship between AEPTCD and AEDECOD,SDTMIG,"3.2, 3.3, 3.4","{""Classes"":{""Include"":[""EVENTS""]},""Domains"":{""Include"":[""AE""]}}",Fully Executable,Published
CORE-000237,"CG0027, SEND43, TIG0309",'--SCAT is equal to --CAT,Trigger error when --SCAT is not null and --SCAT is equal to --CAT,"SDTMIG, SENDIG, SENDIG-GENETOX, SENDIG-DART, TIG","3.4, 3.3, 3.2, 3.0, 3.1, 3.1.1, 1.0, 1.1, 1.2","{""Classes"":{""Include"":[""ALL""]},""Domains"":{""Include"":[""ALL""]},""Use_Case"":""INDH, PROD""}",Fully Executable,Published
CORE-000241,"CG0421, TIG0576","'--ENRF is populated when --OCCUR = ""N""","When --OCCUR = 'N', --ENRF must not be populated","SDTMIG, TIG","3.4, 3.2, 3.3, 1.0","{""Classes"":{""Include"":[""INTERVENTIONS"",""EVENTS""]},""Domains"":{""Include"":[""ALL""]},""Use_Case"":""INDH, PROD""}",Fully Executable,Published
CORE-000162,"CG0344, TIG0509",'--TESTCD is equal to 'MULTIPLE',Raise an error when --TESTCD = 'MULTIPLE',"SDTMIG, TIG","3.4, 3.3, 3.2, 1.0","{""Classes"":{""Include"":[""FINDINGS""]},""Domains"":{""Include"":[""ALL""]},""Use_Case"":""INDH, PROD""}",Fully Executable,Published
CORE-000324,"CG0234, TIG0443","'--ENRTPT is not in ('BEFORE', 'COINCIDENT', 'ONGOING', 'UNKNOWN')","Trigger error when --ENRTPT is not in ('BEFORE', 'COINCIDENT', 'ONGOING', 'UNKNOWN')","SDTMIG, TIG","3.4, 3.2, 3.3, 1.0","{""Classes"":{""Include"":[""ALL""]},""Domains"":{""Include"":[""ALL""]},""Use_Case"":""INDH, PROD""}",Partially Executable,Published
CORE-000293,"CG0205, TIG0425",Length of dataset name of SUPP-- dataset is greater than 8.,Trigger error if length of dataset name is greater than 8,"SDTMIG, TIG","3.4, 3.2, 3.3, 1.0","{""Classes"":{""Include"":[""ALL""]},""Domains"":{""Include"":[""SUPP--""]},""Use_Case"":""INDH, PROD""}",Fully Executable,Published
CORE-000098,"CG0116, TIG0379","'--DIR variable is present, when --LOC variable does not exist in a dataset.","Raise an error when --LOC does not exists in a dataset, --DIR exists.","SDTMIG, TIG","3.4, 3.2, 3.3, 1.0","{""Classes"":{""Include"":[""INTERVENTIONS"",""FINDINGS"",""EVENTS""]},""Domains"":{""Include"":[""ALL""]},""Use_Case"":""INDH, PROD""}",Fully Executable,Published
CORE-000096,"CG0115, TIG0378","'--PORTOT variable is present, when --LOC variable does not exist in a dataset.","Raise an error when --LOC does not exists in a dataset, --PORTOT exists.","SDTMIG, TIG","3.4, 3.2, 3.3, 1.0","{""Classes"":{""Include"":[""INTERVENTIONS"",""FINDINGS"",""EVENTS""]},""Domains"":{""Include"":[""ALL""]},""Use_Case"":""INDH, PROD""}",Fully Executable,Published
CORE-000484,"CG0200, TIG0421",Unique RELID is NOT present on multiple RELREC records within a subject.,"Within a subject, each unique RELID should be present on multiple RELREC records","SDTMIG, TIG","3.4, 3.2, 3.3, 1.0","{""Classes"":{""Include"":[""RELATIONSHIP""]},""Domains"":{""Include"":[""RELREC""]},""Use_Case"":""INDH, PROD""}",Fully Executable,Published
CORE-000080,"CG0093, TIG0358","'--TPTREF is present when --ELTM, --TPTNUM, and --TPT are not present.","Raise an error when --ELTM, --TPTNUM, and --TPT are not present in dataset, but --TPTREF is present.","SDTMIG, TIG","3.4, 3.2, 3.3, 1.0","{""Classes"":{""Include"":[""ALL""]},""Domains"":{""Include"":[""ALL""]},""Use_Case"":""INDH, PROD""}",Fully Executable,Published
CORE-000167,"CG0092, TIG0357",'--TPTREF must be present when --ELTM is present in a dataset,Raise an error when--ELTM is present but --TPTREF is not present in dataset.,"SDTMIG, TIG","3.4, 3.2, 3.3, 1.0","{""Classes"":{""Include"":[""ALL""]},""Domains"":{""Include"":[""ALL""]},""Use_Case"":""INDH, PROD""}",Fully Executable,Published
CORE-000165,"CG0090, TIG0355, FB3701",'--TPTREF is not present when --RFTDTC is present in a dataset,Raise an error when --TPTREF is not present in dataset when --RFTDTC is present.,"SDTMIG, TIG, SENDIG, SENDIG-GENETOX, SENDIG-DART, SENDIG-AR","3.4, 3.3, 3.2, 1.0, 3.0, 3.1, 3.1.1, 1.1, 1.2","{""Classes"":{""Include"":[""ALL""]},""Domains"":{""Include"":[""ALL""]},""Use_Case"":""INDH, PROD""}",Fully Executable,Published
CORE-000023,"CG0084, TIG0349",'--TOX present in dataset even though --TOXGR is not,"Raise an error when --TOXGR is not present in dataset, but --TOX is present","SDTMIG, TIG","3.4, 3.3, 3.2, 1.0","{""Classes"":{""Include"":[""EVENTS"",""FINDINGS""]},""Domains"":{""Include"":[""ALL""]},""Use_Case"":""INDH, PROD""}",Fully Executable,Published
CORE-000724,FB0910,AEBDSYCD and AEBODSYS do not have a one-to-one relationship,There must be a one-to-one relationship between AEBDSYCD and AEBODSYS,SDTMIG,"3.2, 3.3, 3.4","{""Classes"":{""Include"":[""EVENTS""]},""Domains"":{""Include"":[""AE""]}}",Fully Executable,Published
CORE-000302,FB0920,QNAM and QLABEL do not have a one-to-one relationship,QNAM and QLABEL should have a one-to-one relationship,"SDTMIG, SENDIG, SENDIG-GENETOX, SENDIG-DART, SENDIG-AR","3.2, 3.3, 3.4, 3.0, 3.1, 3.1.1, 1.0, 1.1, 1.2","{""Classes"":{""Include"":[""RELATIONSHIP""]},""Domains"":{""Include"":[""SUPP--""]}}",Fully Executable,Published
CORE-000723,FB0907,AEHLTCD and AEHLT do not have a one-to-one relationship,There must be a one-to-one relationship between AEHLTCD and AEHLT,SDTMIG,"3.2, 3.3, 3.4","{""Classes"":{""Include"":[""EVENTS""]},""Domains"":{""Include"":[""AE""]}}",Fully Executable,Published
CORE-000240,"CG0420, TIG0575","'--STRF is populated when --OCCUR = ""N""","When --OCCUR = 'N', --STRF must not be populated","SDTMIG, TIG","3.4, 3.2, 3.3, 1.0","{""Classes"":{""Include"":[""INTERVENTIONS"",""EVENTS""]},""Domains"":{""Include"":[""ALL""]},""Use_Case"":""INDH, PROD""}",Fully Executable,Published
CORE-000243,"CG0354, TIG0519",'--REASEX must never be used in SDTM-based human clinical trials,Raise an error when --REASEX is present in dataset.,"SDTMIG, TIG","3.4, 3.2, 3.3, 1.0","{""Classes"":{""Include"":[""ALL""]},""Domains"":{""Include"":[""ALL""]},""Use_Case"":""INDH, PROD""}",Fully Executable,Published
CORE-000242,"CG0353, TIG0518",'--EXCLFL must never be used in SDTM-based human trials,Raise an error when --EXCLFL is present in dataset.,"SDTMIG, TIG","3.4, 3.2, 3.3, 1.0","{""Classes"":{""Include"":[""ALL""]},""Domains"":{""Include"":[""ALL""]},""Use_Case"":""INDH, PROD""}",Fully Executable,Published
CORE-000248,"CG0026, SEND63, TIG0265, TIG0308, FB3702",'--RFTDTC is populated when --TPTREF is null,Trigger error when --TPTREF = null and --RFTDTC is populated,"SDTMIG, SENDIG, SENDIG-DART, SENDIG-GENETOX, TIG, SENDIG-AR","3.4, 3.3, 3.2, 3.0, 3.1, 3.1.1, 1.1, 1.2, 1.0","{""Classes"":{""Include"":[""ALL""]},""Domains"":{""Include"":[""ALL""]},""Use_Case"":""INDH, PROD, NONCLIN""}",Fully Executable,Published
CORE-000028,"CG0008, TIG0293",'--TPTREF is empty and --ELTM is not empty,"Raise an error when --TPTREF is empty, but --ELTM is not empty","SDTMIG, TIG","3.4, 3.3, 3.2, 1.0","{""Classes"":{""Include"":[""ALL""]},""Domains"":{""Include"":[""ALL""]},""Use_Case"":""INDH, PROD""}",Fully Executable,Published
CORE-000265,"CG0046, TIG0325, FB4402","'--ENRTPT is completed, but --ENTPT is not completed.",Raise an error when --ENRTPT is completed and --ENTPT is not completed.,"SDTMIG, TIG, SENDIG, SENDIG-DART, SENDIG-AR, SENDIG-GENETOX","3.4, 3.3, 3.2, 1.0, 3.0, 3.1, 3.1.1, 1.1, 1.2","{""Classes"":{""Include"":[""ALL""]},""Domains"":{""Include"":[""ALL""]},""Use_Case"":""INDH, PROD""}",Fully Executable,Published
CORE-000658,FB3412,RFICDTC is greater than RFXSTDTC,Date/Time of Informed Consent (RFICDTC) should not be after Date/Time of First Study Treatment (RFXSTDTC),SDTMIG,"3.2, 3.3, 3.4","{""Classes"":{""Include"":[""SPECIAL PURPOSE""]},""Domains"":{""Include"":[""DM""]}}",Fully Executable,Published
CORE-000714,FB3408,RFXSTDTC is greater than RFXENDTC,Date/Time of First Study Treatment (RFXSTDTC) variable value must be less than or equal to Date/Time of Last Study Treatment (RFXENDTC).,"SDTMIG, SENDIG, SENDIG-GENETOX, SENDIG-DART, SENDIG-AR","3.2, 3.3, 3.4, 3.1, 3.1.1, 1.0, 1.1, 1.2","{""Classes"":{""Include"":[""SPECIAL PURPOSE""]},""Domains"":{""Include"":[""DM""]}}",Fully Executable,Published
CORE-000720,FB3406,'--DTC is greater than RFPENDTC,Date/Time of Collection (--DTC) variable value must be less than or equal to Date/Time of End of Participation (RFPENDTC).,SDTMIG,"3.2, 3.3, 3.4","{""Classes"":{""Include"":[""INTERVENTIONS"",""EVENTS"",""FINDINGS"",""SPECIAL PURPOSE""]},""Domains"":{""Include"":[""ALL""]}}",Fully Executable,Published
CORE-000719,FB0908,AEHLGTCD and AEHLGT do not have a one-to-one relationship,There must be a one-to-one relationship between AEHLGTCD and AEHLGT,SDTMIG,"3.2, 3.3, 3.4","{""Classes"":{""Include"":[""EVENTS""]},""Domains"":{""Include"":[""AE""]}}",Fully Executable,Published
CORE-000718,FB3209,'--STDTC is greater than --ENDTC,"Start Date/Time of Event, Exposure or Observation (--STDTC) must be less or equal to End Date/Time of Event, Exposure or Observation (--ENDTC).","SDTMIG, SENDIG, SENDIG-GENETOX, SENDIG-DART, SENDIG-AR","3.2, 3.3, 3.4, 3.0, 3.1, 3.1.1, 1.0, 1.1, 1.2","{""Classes"":{""Include"":[""INTERVENTIONS"",""EVENTS"",""SPECIAL PURPOSE""]},""Domains"":{""Exclude"":[""DM""]}}",Fully Executable,Published
CORE-000717,FB3401,AESTDTC is greater than max(DSSTDTC),Start Date/Time of Adverse Event (AESTDTC) should be less than or equal to the Start Date/Time of the latest Disposition Event (DSSTDTC).,SDTMIG,"3.2, 3.3, 3.4","{""Classes"":{""Include"":[""EVENTS""]},""Domains"":{""Include"":[""AE""]}}",Fully Executable,Published
CORE-000716,FB0911,AESOCCD and AESOC do not have a one-to-one relationship,There must be a one-to-one relationship between AESOCCD and AESOC,SDTMIG,"3.2, 3.3, 3.4","{""Classes"":{""Include"":[""EVENTS""]},""Domains"":{""Include"":[""AE""]}}",Fully Executable,Published
CORE-000035,"CG0658, TIG0696",VISITDY is populated when SVPRESP is null.  VISITDY is the Planned Study Day of a visit. It should not be populated for unplanned visits.,Raise an error when SVPRESP is null and VISITDY is not null.,"SDTMIG, TIG","3.4, 1.0","{""Classes"":{""Include"":[""SPECIAL PURPOSE""]},""Domains"":{""Include"":[""SV""]},""Use_Case"":""INDH""}",Fully Executable,Published
CORE-000036,"CG0657, TIG0695",Planned visit is not found in TV.,"Raise an error when SVPRESP is ""Y"" and VISIT is not present in TV.VISIT.","SDTMIG, TIG","3.4, 1.0","{""Classes"":{""Include"":[""SPECIAL PURPOSE""]},""Domains"":{""Include"":[""SV""]},""Use_Case"":""INDH""}",Fully Executable,Published
CORE-000040,"CG0656, TIG0694",VISITNUM for unplanned visit is present in TV.,Raise an error when SVPRESP is null and VISITNUM is present in TV.VISITNUM,"SDTMIG, TIG","3.4, 1.0","{""Classes"":{""Include"":[""SPECIAL PURPOSE""]},""Domains"":{""Include"":[""SV""]},""Use_Case"":""INDH""}",Fully Executable,Published
CORE-000039,"CG0655, TIG0693",VISITNUM for planned visit is not in TV.,"Raise an error when SVPRESP=""Y"" and VISITNUM is not in TV.VISITNUM","SDTMIG, TIG","3.4, 1.0","{""Classes"":{""Include"":[""SPECIAL PURPOSE""]},""Domains"":{""Include"":[""SV""]},""Use_Case"":""INDH""}",Fully Executable,Published
CORE-000540,"CG0333, TIG0499",Parent domain referenced in Findings About dataset name is not present in the study,Raise an error when parent domain referenced in Findings About dataset name is not present in the study.,"SDTMIG, TIG","3.4, 3.2, 3.3, 1.0","{""Classes"":{""Include"":[""ALL""]},""Domains"":{""Include"":[""ALL""],""include_split_datasets"":true},""Use_Case"":""INDH""}",Fully Executable,Published
CORE-000038,"CG0654, TIG0692","SVPRESP is not ""Y"" when SVOCCUR is populated.","Raise an error when SVOCCUR is not null and SVPRESP is not ""Y"".","SDTMIG, TIG","3.4, 1.0","{""Classes"":{""Include"":[""SPECIAL PURPOSE""]},""Domains"":{""Include"":[""SV""]},""Use_Case"":""INDH""}",Fully Executable,Published
CORE-000037,"CG0653, TIG0691","SVPRESP is not null and not equal to ""Y"". Values should be ""Y"" or null.","Raise an error when SVPRESP not ""Y"" or null.","SDTMIG, TIG","3.4, 1.0","{""Classes"":{""Include"":[""SPECIAL PURPOSE""]},""Domains"":{""Include"":[""SV""]},""Use_Case"":""INDH""}",Fully Executable,Published
,FB7101,"For the same analyte, specimen type are not consistent across pharmacokinetic datasets within a submission.","For the same analyte, specimen type should be consistent across pharmacokinetic datasets within a submission.","SDTMIG, SENDIG, SENDIG-GENETOX, SENDIG-DART, SENDIG-AR","3.2, 3.3, 3.4, 3.0, 3.1, 3.1.1, 1.0, 1.1, 1.2","{""Classes"":{""Include"":[""FINDINGS"",""RELATIONSHIP""]},""Domains"":{""Include"":[""PP"",""PC"",""RELREC""]}}",Partially Executable,Draft
CORE-000713,FB3411,RFICDTC is greater than RFSTDTC,Date/Time of Informed Consent (RFICDTC) should not be after Subject Reference Start Date/Time (RFSTDTC).,SDTMIG,"3.3, 3.4","{""Classes"":{""Include"":[""SPECIAL PURPOSE""]},""Domains"":{""Include"":[""DM""]}}",Fully Executable,Published
,FB3405,'--STDTC is greater than RFPENDTC,Start Date/Time (--STDTC) variable value must be less than or equal to Date/Time of End of Participation (RFPENDTC).,SDTMIG,"3.2, 3.3, 3.4","{""Classes"":{""Include"":[""INTERVENTIONS"",""EVENTS"",""SPECIAL PURPOSE""]},""Domains"":{""Include"":[""ALL""]}}",Fully Executable,Draft
CORE-000047,"CG0518, TIG0613",ARM value in DM dataset is not among the values of ARM variable in TA dataset. This is allowed only in a multistage study with incomplete ARM assignment. Please confirm if your study is a multistage assignment study,"When study does not use multi-stage arm assignments and ARM is populated, ARM must be present in TA.ARM. This rule has been executed to identify all cases when ARM is not present in TA.ARM and therefore acknowledges that false positives may be recorded when multi-stage arm assignments are in use.","SDTMIG, TIG","3.4, 3.3, 1.0","{""Classes"":{""Include"":[""SPECIAL PURPOSE""]},""Domains"":{""Include"":[""DM""]},""Use_Case"":""INDH""}",Partially Executable - Possible Overreporting,Published
CORE-000208,"CG0512, TIG0607",ACTARMCD is not in TA.ARMCD,"Trigger error when study does not use multi-stage arm assignments and ACTARMCD ^= null, and ACTARMCD is not in TA.ARMCD","SDTMIG, TIG","3.4, 3.3, 1.0","{""Classes"":{""Include"":[""SPECIAL PURPOSE""]},""Domains"":{""Include"":[""DM""]},""Use_Case"":""INDH""}",Partially Executable - Possible Overreporting,Published
CORE-000209,"CG0514, TIG0609",ACTARM value in DM dataset is not among the values of ARM variable in the TA dataset. This is allowed only in a multistage study with incomplete ARM assignment. Please confirm if your study is a multistage assignment study.,"When study does not use multi-stage arm assignments and ACTARM is populated, ACTARM must be present in TA.ARM. This rule has been executed to identify all cases when ACTARM is not present in TA.ARM and therefore acknowledges that false positives may be recorded when multi-stage arm assignments are in use.","SDTMIG, TIG","3.4, 3.3, 1.0","{""Classes"":{""Include"":[""SPECIAL PURPOSE""]},""Domains"":{""Include"":[""DM""]},""Use_Case"":""INDH""}",Partially Executable - Possible Overreporting,Published
CORE-000190,"CG0666, TIG0700",AGE is missing when AGEU is provided.,Raise an error when AGEU is not blank and AGE is blank.,"SDTMIG, TIG","3.4, 1.0","{""Classes"":{""Include"":[""SPECIAL PURPOSE""]},""Domains"":{""Include"":[""DM""]},""Use_Case"":""INDH""}",Fully Executable,Published
CORE-000189,"CG0665, TIG0699",AGEU is missing when AGE is provided.,Raise an error when AGE is not blank and AGEU is blank.,"SDTMIG, TIG","3.4, 1.0","{""Classes"":{""Include"":[""SPECIAL PURPOSE""]},""Domains"":{""Include"":[""DM""]},""Use_Case"":""INDH""}",Fully Executable,Published
CORE-000048,"CG0621, TIG0662",'--METHOD is present in an interventions domain.,Raise an error when --METHOD is present in an Interventions dataset.,"SDTMIG, TIG","3.4, 1.0","{""Classes"":{""Include"":[""INTERVENTIONS""]},""Domains"":{""Include"":[""ALL""]},""Use_Case"":""INDH""}",Fully Executable,Published
CORE-000296,"CG0540, TIG0633",There are no DS records for subject who was assigned treatment,"When ACTARMCD is populated, disposition data for subject must be present","SDTMIG, TIG","3.4, 3.3, 1.0","{""Classes"":{""Include"":[""SPECIAL PURPOSE""]},""Domains"":{""Include"":[""DM""]},""Use_Case"":""INDH""}",Fully Executable,Published
CORE-000374,"CG0537, TIG0630",There is more than one record per subject per EPOCH,Trigger error when there is more than one record per subject per EPOCH,"SDTMIG, TIG","3.4, 3.3, 1.0","{""Classes"":{""Include"":[""EVENTS""]},""Domains"":{""Include"":[""DS""]},""Use_Case"":""INDH""}",Fully Executable,Published
CORE-000213,"CG0536, TIG0629",More than one record per subject per DSSCAT per EPOCH,Trigger error when there is more than one record per subject per DSSCAT per EPOCH,"SDTMIG, TIG","3.4, 3.3, 1.0","{""Classes"":{""Include"":[""EVENTS""]},""Domains"":{""Include"":[""DS""]},""Use_Case"":""INDH""}",Fully Executable,Published
CORE-000212,"CG0535, TIG0628",DSSCAT is not present when subject has more than one record per Epoch with DSCAT = 'DISPOSITION EVENT'.,"When subject has more than one record per Epoch with DSCAT = DISPOSITION EVENT, DSSCAT must be present.","SDTMIG, TIG","3.4, 3.3, 1.0","{""Classes"":{""Include"":[""EVENTS""]},""Domains"":{""Include"":[""DS""]},""Use_Case"":""INDH""}",Fully Executable,Published
CORE-000131,"CG0396, TIG0558","AECONTRT is completed, but not equal to ""N"" or ""Y""",Raise an error when AECONTRT is completed and value is not 'Y' or 'N',"SDTMIG, TIG","3.4, 3.3, 3.2, 1.0","{""Classes"":{""Include"":[""EVENTS""]},""Domains"":{""Include"":[""AE""]},""Use_Case"":""INDH""}",Fully Executable,Published
CORE-000125,"CG0390, TIG0552","AESDISAB is completed, but not equal to ""N"" or ""Y""",Raise an error when AESDISAB is completed and value is not 'Y' or 'N',"SDTMIG, TIG","3.4, 3.3, 3.2, 1.0","{""Classes"":{""Include"":[""EVENTS""]},""Domains"":{""Include"":[""AE""]},""Use_Case"":""INDH""}",Fully Executable,Published
CORE-000130,"CG0395, TIG0557","AESMIE is completed, but not equal to ""N"" or ""Y""",Raise an error when AESMIE is completed and value is not 'Y' or 'N',"SDTMIG, TIG","3.4, 3.3, 3.2, 1.0","{""Classes"":{""Include"":[""EVENTS""]},""Domains"":{""Include"":[""AE""]},""Use_Case"":""INDH""}",Fully Executable,Published
CORE-000129,"CG0394, TIG0556","AESOD is completed, but not equal to ""N"" or ""Y""",Raise an error when AESOD is completed and value is not 'Y' or 'N',"SDTMIG, TIG","3.4, 3.3, 3.2, 1.0","{""Classes"":{""Include"":[""EVENTS""]},""Domains"":{""Include"":[""AE""]},""Use_Case"":""INDH""}",Fully Executable,Published
CORE-000128,"CG0393, TIG0555","AESLIFE is completed, but not equal to ""N"" or ""Y""",Raise an error when AESLIFE is completed and value is not 'Y' or 'N',"SDTMIG, TIG","3.4, 3.3, 3.2, 1.0","{""Classes"":{""Include"":[""EVENTS""]},""Domains"":{""Include"":[""AE""]},""Use_Case"":""INDH""}",Fully Executable,Published
CORE-000127,"CG0392, TIG0554","AESHOSP is completed, but not equal to ""N"" or ""Y""",Raise an error when AESHOSP is completed and value is not 'Y' or 'N',"SDTMIG, TIG","3.4, 3.3, 3.2, 1.0","{""Classes"":{""Include"":[""EVENTS""]},""Domains"":{""Include"":[""AE""]},""Use_Case"":""INDH""}",Fully Executable,Published
CORE-000126,"CG0391, TIG0553","AESDTH is completed, but not equal to ""N"" or ""Y""",Raise an error when AESDTH is completed and value is not 'Y' or 'N',"SDTMIG, TIG","3.4, 3.3, 3.2, 1.0","{""Classes"":{""Include"":[""EVENTS""]},""Domains"":{""Include"":[""AE""]},""Use_Case"":""INDH""}",Fully Executable,Published
CORE-000124,"CG0389, TIG0551","AESCONG is completed, but not equal to ""N"" or ""Y""",Raise an error when AESCONG is completed and value is not 'Y' or 'N',"SDTMIG, TIG","3.4, 3.3, 3.2, 1.0","{""Classes"":{""Include"":[""EVENTS""]},""Domains"":{""Include"":[""AE""]},""Use_Case"":""INDH""}",Fully Executable,Published
CORE-000123,"CG0388, TIG0550","AESCAN is completed, but not equal to ""N"" or ""Y""",Raise an error when AESCAN is completed and value is not 'Y' or 'N',"SDTMIG, TIG","3.4, 3.3, 3.2, 1.0","{""Classes"":{""Include"":[""EVENTS""]},""Domains"":{""Include"":[""AE""]},""Use_Case"":""INDH""}",Fully Executable,Published
CORE-000087,"CG0387, TIG0549","AESER is completed, but not equal to ""N"" or ""Y""",Raise an error when AESER is completed and value is not 'Y' or 'N',"SDTMIG, TIG","3.4, 3.3, 3.2, 1.0","{""Classes"":{""Include"":[""EVENTS""]},""Domains"":{""Include"":[""AE""]},""Use_Case"":""INDH""}",Fully Executable,Published
CORE-000712,"CG0370, TIG0534",IDVAR does not represent a variable present in the dataset identified in RDOMAIN,"When IDVAR is populated, IDVAR must be a valid variable in the domain referenced by RDOMAIN.","SDTMIG, TIG","3.4, 3.2, 3.3, 1.0","{""Classes"":{""Include"":[""SPECIAL PURPOSE"",""RELATIONSHIP""]},""Domains"":{""Include"":[""CO"",""SUPP--"",""RELREC""]},""Use_Case"":""INDH, PROD""}",Fully Executable,Published
CORE-000191,"CG0529, TIG0622",RFENDTC is missing when ARM is provided.,Raise an error when ARM is not empty and RFENDTC is empty.,"SDTMIG, TIG","3.4, 3.3, 1.0","{""Classes"":{""Include"":[""SPECIAL PURPOSE""]},""Domains"":{""Include"":[""DM""]},""Use_Case"":""INDH""}",Fully Executable,Published
CORE-000119,"CG0521, TIG0616","ARM is populated, when ARMCD is NULL","Raise an error when ARM is not empty, but ARMCD is empty","SDTMIG, TIG","3.4, 3.3, 1.0","{""Classes"":{""Include"":[""SPECIAL PURPOSE""]},""Domains"":{""Include"":[""DM""]},""Use_Case"":""INDH""}",Fully Executable,Published
CORE-000210,"CG0516, TIG0611",ARMCD is not present in TA.ARMCD,"When study does not use multi-stage arm assignments and ARMCD is populated, ARMCD must be present in TA.ARMCD. This rule has been executed to identify all cases when ARMCD is not present in TA.ARMCD and therefore acknowledges that false positives may be recorded when multi-stage arm assignments are in use.","SDTMIG, TIG","3.4, 3.3, 1.0","{""Classes"":{""Include"":[""SPECIAL PURPOSE""]},""Domains"":{""Include"":[""DM""]},""Use_Case"":""INDH""}",Partially Executable - Possible Overreporting,Published
CORE-000120,"CG0522, TIG0617","ACTARM is populated, when ACTARMCD is NULL","Raise an error when ACTARM is not empty, but ACTARMCD is empty","SDTMIG, TIG","3.4, 3.3, 1.0","{""Classes"":{""Include"":[""SPECIAL PURPOSE""]},""Domains"":{""Include"":[""DM""]},""Use_Case"":""INDH""}",Fully Executable,Published
CORE-000294,"CG0270, TIG0471",TSVAL is not in ISO 8601 format,Trigger error when TSPARMCD = 'AGEMAX' and TSVAL ^= null and TSVAL does not conform to ISO 8601,"SDTMIG, TIG","3.4, 3.2, 3.3, 1.0","{""Classes"":{""Include"":[""TRIAL DESIGN""]},""Domains"":{""Include"":[""TS""]},""Use_Case"":""INDH""}",Fully Executable,Published
CORE-000013,"CG0044, TIG0323",AESTAT variable is present in AE dataset.,Raise an error when AESTAT is present in AE dataset.,"SDTMIG, TIG","3.4, 3.3, 3.2, 1.0","{""Classes"":{""Include"":[""EVENTS""]},""Domains"":{""Include"":[""AE""]},""Use_Case"":""INDH""}",Fully Executable,Published
CORE-000086,"CG0075, TIG0341",DVSTDTC is earlier than RFICDTC in DM.,Raise an error when DVSTDTC is earlier than RFICDTC in DM.,"SDTMIG, TIG","3.4, 3.3, 3.2, 1.0","{""Classes"":{""Include"":[""EVENTS""]},""Domains"":{""Include"":[""DV""]},""Use_Case"":""INDH""}",Fully Executable,Published
CORE-000034,"CG0069, TIG0339","DSSTDTC does not equal DM.DTHDTC, when DSDECOD equals ""DEATH"".","Raise an error when DSSTDTC is not equal to DM.DTHDTC and DSDECOD is equal to ""DEATH""","SDTMIG, TIG","3.4, 3.3, 3.2, 1.0","{""Classes"":{""Include"":[""EVENTS""]},""Domains"":{""Include"":[""DS""]},""Use_Case"":""INDH""}",Fully Executable,Published
CORE-000363,"CG0068, TIG0338","The earliest disposition date for ""INFORMED CONSENT OBTAINED"" is not equal to DM.RFICDTC","When there are multiple informed consents obtained and DSDECOD = 'INFORMED CONSENT OBTAINED', the earliest DSSTDTC for each subject should be equal to DM.RFICDTC.","SDTMIG, TIG","3.4, 3.2, 3.3, 1.0","{""Classes"":{""Include"":[""EVENTS""]},""Domains"":{""Include"":[""DS""]},""Use_Case"":""INDH""}",Fully Executable,Published
CORE-000106,"CG0045, TIG0324","'--ENTPT is completed, but --ENRTPT is not completed.",Raise an error when --ENTPT is completed and --ENRTPT is not completed.,"SDTMIG, TIG","3.4, 3.3, 3.2, 1.0","{""Classes"":{""Include"":[""ALL""]},""Domains"":{""Include"":[""ALL""]},""Use_Case"":""INDH, PROD""}",Fully Executable,Published
CORE-000267,"CG0050, TIG0328",'--DECOD should be populated when --PTCD is populated,Raise an error when --DECOD is not populated but --PTCD is populated,"SDTMIG, TIG","3.4, 3.3, 3.2, 1.0","{""Classes"":{""Include"":[""EVENTS""]},""Domains"":{""Include"":[""ALL""]},""Use_Case"":""INDH""}",Fully Executable,Published
CORE-000268,"CG0049, TIG0327",'--DECOD and --PTCD do not have a one-to-one relationship,Trigger error when --DECOD and --PTCD do not have a one-to-one relationship,"SDTMIG, TIG","3.4, 3.3, 3.2, 1.0","{""Classes"":{""Include"":[""EVENTS""]},""Domains"":{""Include"":[""ALL""]},""Use_Case"":""INDH""}",Fully Executable,Published
CDISC.SDTMIG.CG0425,CG0425,'--STRESU is null when --STRESC ^= null and units are applicable for the result,Trigger error if --STRESU is null when --STRESC ^= null and units are applicable for the result,SDTMIG,"3.4, 3.2, 3.3","{""Classes"":{""Include"":[""FINDINGS""]},""Domains"":{""Include"":[""ALL""]}}",Not Executable,Draft
CDISC.SDTMIG.CG0252,CG0252,TATRANS is null when trial Design allows for a Subject to transition to an Element other than the next Element in sequence,"Trigger error when trial Design allows for a Subject to transition to an Element other than the next Element in sequence, and TATRANS is null",SDTMIG,"3.4, 3.2, 3.3","{""Classes"":{""Include"":[""TRIAL DESIGN""]},""Domains"":{""Include"":[""TA""]}}",Not Executable,Draft
CDISC.SDTMIG.CG0253,CG0253,TIVERS is null when there is more than one version of the IE criteria in study documentation,Trigger error when TIVERS is null and there is more than one version of the IE criteria in study documentation,SDTMIG,"3.4, 3.2, 3.3","{""Classes"":{""Include"":[""TRIAL DESIGN""]},""Domains"":{""Include"":[""TI""]}}",Not Executable,Draft
CDISC.SDTMIG.CG0162,CG0162,SREL does not describe the relationship of associated person to study identified in STUDYID when RSUBJID = null and RDEVID = null,Trigger error when RSUBJID = null and RDEVID = null and SREL does not describe the relationship of associated person to study identified in STUDYID,SDTMIG,"3.4, 3.2, 3.3","{""Classes"":{""Include"":[""ASSOCIATED PERSONS""]},""Domains"":{""Include"":[""ALL""]}}",Not Executable,Draft
CDISC.SDTMIG.CG0267,CG0267,TSVCDVER is null when Reference Terminology is versioned,Trigger error when Reference Terminology is versioned and TSVCDVER is null,SDTMIG,"3.4, 3.2, 3.3","{""Classes"":{""Include"":[""TRIAL DESIGN""]},""Domains"":{""Include"":[""TS""]}}",Not Executable,Draft
CORE-000711,FB3404,RFSTDTC is greater than RFENDTC,Subject Reference Start Date/Time (RFSTDTC) must be less than or equal to Subject Reference End Date/Time (RFENDTC).,"SDTMIG, SENDIG, SENDIG-GENETOX, SENDIG-DART, SENDIG-AR","3.2, 3.3, 3.4, 3.0, 3.1, 3.1.1, 1.0, 1.1, 1.2","{""Classes"":{""Include"":[""SPECIAL PURPOSE""]},""Domains"":{""Include"":[""DM""]}}",Fully Executable,Published
CDISC.SDTMIG.CG0012,"CG0012, SEND4",Variable type in dataset does not variable datatype in the define.xml,Trigger error when variable type does not match IG Type (for domains in IG) or Model Type (custom domains),"SDTMIG, SENDIG, SENDIG-GENETOX, SENDIG-DART","3.4, 3.2, 3.3, 3.0, 3.1, 3.1.1, 1.0, 1.1, 1.2","{""Classes"":{""Include"":[""ALL""]},""Domains"":{""Include"":[""ALL""]}}",Fully Executable,Draft
CORE-000183,"CG0318, TIG0489","PP dataset is present in  study, but PC dataset is not present in study.","Raise an error when a PP dataset is present in study, but a PC dataset is not present in study.","SDTMIG, TIG","3.4, 3.2, 3.3, 1.0","{""Classes"":{""Include"":[""FINDINGS""]},""Domains"":{""Include"":[""PC"",""PP""]},""Use_Case"":""INDH""}",Fully Executable,Published
CORE-000252,"CG0136, TIG0385, FB0605","DTHFL is not 'Y' when DS.DSDECOD is ""DEATH""","When DS.DSDECOD is 'DEATH', DTHFL must be 'Y'","SDTMIG, TIG","3.4, 3.2, 3.3, 1.0","{""Classes"":{""Include"":[""SPECIAL PURPOSE""]},""Domains"":{""Include"":[""DM""]},""Use_Case"":""INDH""}",Fully Executable,Published
CORE-000253,"CG0135, TIG0384, FB0604",DTHFL is not 'Y' when AE.AESDTH is 'Y'.,"When AE.AESDTH is 'Y', DTHFL must be 'Y'","SDTMIG, TIG","3.4, 3.2, 3.3, 1.0","{""Classes"":{""Include"":[""SPECIAL PURPOSE""]},""Domains"":{""Include"":[""DM""]},""Use_Case"":""INDH""}",Fully Executable,Published
CORE-000108,"CG0133, TIG0382, FB0602","DD record present for subject, but DTHFL is not equal to ""Y"".","When a record is present in DD domain for a subject, death flag is populated as Y in DM dataset for corresponding subject","SDTMIG, TIG","3.4, 3.2, 3.3, 1.0","{""Classes"":{""Include"":[""SPECIAL PURPOSE""]},""Domains"":{""Include"":[""DM""]},""Use_Case"":""INDH""}",Fully Executable,Published
CORE-000006,"CG0131, TIG0381","DTHFL is not ""Y"" or null","Raise an error when DTHFL ^= ""Y"" and not null","SDTMIG, TIG","3.4, 3.2, 3.3, 1.0","{""Classes"":{""Include"":[""SPECIAL PURPOSE""]},""Domains"":{""Include"":[""DM""]},""Use_Case"":""INDH""}",Fully Executable,Published
CORE-000171,"CG0058, TIG0332",'--ENTPT should be present when --ENRTPT is present in a dataset,Raises an error when --ENRTPT is present in dataset but --ENTPT is not present in dataset.,"SDTMIG, TIG","3.4, 3.3, 3.2, 1.0","{""Classes"":{""Include"":[""ALL""]},""Domains"":{""Include"":[""ALL""]},""Use_Case"":""INDH, PROD""}",Fully Executable,Published
CORE-000084,"CG0057, TIG0331","'--ENTPT exists in a dataset, but --ENRTPT does not exist.",Raise an error when --ENTPT exists in a dataset and --ENRTPT does not exist.,"SDTMIG, TIG","3.4, 3.3, 3.2, 1.0","{""Classes"":{""Include"":[""ALL""]},""Domains"":{""Include"":[""ALL""]},""Use_Case"":""INDH, PROD""}",Fully Executable,Published
CORE-000258,"CG0062, TIG0336","'--STRTPT is present in dataset, but --STTPT is not present in dataset.",Raise an error when --STRTPT is present in dataset and --STTPT is not present in dataset.,"SDTMIG, TIG","3.4, 3.3, 3.2, 1.0","{""Classes"":{""Include"":[""ALL""]},""Domains"":{""Include"":[""ALL""]},""Use_Case"":""INDH, PROD""}",Fully Executable,Published
CORE-000257,"CG0061, TIG0335, FB4401","'--STRTPT is completed, but --STTPT is not completed.",Raise an error when --STRTPT is completed and --STTPT is not completed.,"SDTMIG, TIG, SENDIG, SENDIG-DART, SENDIG-AR, SENDIG-GENETOX","3.4, 3.3, 3.2, 1.0, 3.0, 3.1, 3.1.1, 1.1, 1.2","{""Classes"":{""Include"":[""ALL""]},""Domains"":{""Include"":[""ALL""]},""Use_Case"":""INDH, PROD""}",Fully Executable,Published
CORE-000085,"CG0059, TIG0333",'--STTPT is completed and --STRTPT is empty,Raise an error when --STTPT is completed and --STRTPT is empty,"SDTMIG, TIG","3.4, 3.3, 3.2, 1.0","{""Classes"":{""Include"":[""ALL""]},""Domains"":{""Include"":[""ALL""]},""Use_Case"":""INDH, PROD""}",Fully Executable,Published
CORE-000261,"CG0060, TIG0334","'--STTPT is present in dataset, but --STRTPT is not present in dataset.",Raise an error when --STTPT is present in dataset and --STRTPT is not present in dataset.,"SDTMIG, TIG","3.4, 3.3, 3.2, 1.0","{""Classes"":{""Include"":[""ALL""]},""Domains"":{""Include"":[""ALL""]},""Use_Case"":""INDH, PROD""}",Fully Executable,Published
CORE-000179,"CG0307, TIG0482, FB0916",TSPARM and TSPARMCD don't have a one-to-one relationship.,Raise an error when TSPARM and TSPARMCD don't have a one-to-one relationship.,"SDTMIG, TIG, SENDIG, SENDIG-GENETOX, SENDIG-DART, SENDIG-AR","3.4, 3.2, 3.3, 1.0, 3.0, 3.1, 3.1.1, 1.1, 1.2","{""Classes"":{""Include"":[""TRIAL DESIGN""]},""Domains"":{""Include"":[""TS""]},""Use_Case"":""INDH""}",Fully Executable,Published
CORE-000157,"CG0297, TIG0479",Length of ARMCD is greater than 20,The length of ARMCD is limited to 20 characters.,"SDTMIG, TIG","3.4, 3.2, 3.3, 1.0","{""Classes"":{""Include"":[""TRIAL DESIGN""]},""Domains"":{""Include"":[""TV""]},""Use_Case"":""INDH""}",Fully Executable,Published
CORE-000151,"CG0261, SEND281",TSVAL is null when TSVAL1 is populated.,Trigger error when TSVAL1 is populated and TSVAL is null,"SDTMIG, SENDIG, SENDIG-DART, SENDIG-GENETOX","3.4, 3.2, 3.3, 3.0, 3.1, 3.1.1, 1.1, 1.2, 1.0","{""Classes"":{""Include"":[""TRIAL DESIGN""]},""Domains"":{""Include"":[""TS""]}}",Fully Executable,Published
CORE-000709,FB0607,DTHFL is not 'Y' when CETERM or CEDECOD  = 'DEATH'.,"When CETERM or CEDECOD  = 'DEATH', DTHFL MUST BE 'Y'.",SDTMIG,"3.2, 3.3, 3.4","{""Classes"":{""Include"":[""SPECIAL PURPOSE""]},""Domains"":{""Include"":[""DM""]}}",Fully Executable,Published
CORE-000708,FB3207,'--STDY is greater than --ENDY,"Study Day of Start of Event, Exposure or Observation (--STDY) must be less or equal to Study Day of End of Event, Exposure or Observation (--ENDY).","SDTMIG, SENDIG, SENDIG-GENETOX, SENDIG-DART, SENDIG-AR","3.2, 3.3, 3.4, 3.0, 3.1, 3.1.1, 1.0, 1.1, 1.2","{""Classes"":{""Include"":[""INTERVENTIONS"",""EVENTS"",""SPECIAL PURPOSE""]},""Domains"":{""Include"":[""ALL""]}}",Fully Executable,Published
CORE-000707,FB3208,'--DY is greater than --ENDY,Study Day of Observation (--DY) must be less or equal to Study Day of End of Observation (--ENDY),"SDTMIG, SENDIG, SENDIG-GENETOX, SENDIG-DART, SENDIG-AR","3.2, 3.3, 3.4, 3.0, 3.1, 3.1.1, 1.0, 1.1, 1.2","{""Classes"":{""Include"":[""FINDINGS""]},""Domains"":{""Include"":[""ALL""]}}",Fully Executable,Published
CORE-000706,FB0906,AELLTCD and AELLT do not have a one-to-one relationship,There must be a one-to-one relationship between AELLTCD and AELLT,SDTMIG,"3.2, 3.3, 3.4","{""Classes"":{""Include"":[""EVENTS""]},""Domains"":{""Include"":[""AE""]}}",Fully Executable,Published
CORE-000705,FB0610,"The death flag in DM is set to ""Y"", but death date is not populated on corresponding record","When the death flag in DM is set to ""Y"", then death date is populated on corresponding record",SDTMIG,"3.2, 3.3, 3.4","{""Classes"":{""Include"":[""SPECIAL PURPOSE""]},""Domains"":{""Include"":[""DM""]}}",Fully Executable,Published
CORE-000138,"CG0221, TIG0435",'--STDY is not null when either --STDTC or DM.RFSTDTC do not contain complete values in their date portion,"If --STDTC or DM.RFSTDTC does not contain a complete values, --STDY must be null.","SDTMIG, TIG","3.4, 3.2, 3.3, 1.0","{""Classes"":{""Include"":[""ALL""]},""Domains"":{""Include"":[""ALL""]},""Use_Case"":""INDH""}",Fully Executable,Published
CORE-000527,"CG0209, TIG0428",SEENDTC is null when element is not the last.,Trigger error where element is not the last element and SEENDTC is null.,"SDTMIG, TIG","3.4, 3.2, 3.3, 1.0","{""Classes"":{""Include"":[""SPECIAL PURPOSE""]},""Domains"":{""Include"":[""SE""]},""Use_Case"":""INDH""}",Fully Executable,Published
CORE-000011,"CG0175, TIG0404",IEORRES is not equal to 'Y' when IECAT equals 'EXCLUSION'.,Raise an error when IECAT is equal to 'EXCLUSION' and IEORRES is not equal to 'Y'.,"SDTMIG, TIG","3.4, 3.2, 3.3, 1.0","{""Classes"":{""Include"":[""FINDINGS""]},""Domains"":{""Include"":[""IE""]},""Use_Case"":""INDH""}",Fully Executable,Published
CORE-000001,"CG0176, TIG0405",IEORRES is not equal to 'N' when IECAT equals 'INCLUSION'.,Raise an error when IECAT is equal to 'INCLUSION' and IEORRES is not equal to 'N'.,"SDTMIG, TIG","3.4, 3.2, 3.3, 1.0","{""Classes"":{""Include"":[""FINDINGS""]},""Domains"":{""Include"":[""IE""]},""Use_Case"":""INDH""}",Fully Executable,Published
CORE-000141,"CG0240, TIG0448, FB0922",'--TPT and --TPTNUM do not have a one-to-one relationship,Trigger error when VISITNUM and --TPTREF are not present and --TPT and --TPTNUM does not have a one-to-one relationship,"SDTMIG, TIG","3.4, 3.3, 3.2, 1.0","{""Classes"":{""Include"":[""ALL""]},""Domains"":{""Include"":[""ALL""]},""Use_Case"":""INDH""}",Fully Executable,Published
CORE-000384,"CG0374, TIG0538",RELREC.RDOMAIN does not represent a dataset present in the study,RELREC.RDOMAIN must represent a dataset that is present in the study.,"SDTMIG, TIG","3.4, 3.2, 3.3, 1.0","{""Classes"":{""Include"":[""ALL""]},""Domains"":{""Include"":[""RELREC""]},""Use_Case"":""INDH, PROD""}",Fully Executable,Published
CORE-000701,FB2201,EPOCH is missing for clinical subject-level observations,EPOCH should be included for clinical subject-level observations,SDTMIG,"3.2, 3.3, 3.4","{""Classes"":{""Include"":[""INTERVENTIONS"",""FINDINGS"",""EVENTS""]},""Domains"":{""Exclude"":[""DD"",""PP"",""MH""]}}",Fully Executable,Published
CORE-000700,FB3204,The Date/Time of Collection (--DTC)  is not present in the dataset when Study Day of Visit/Collection/Exam (--DY) is present.,"Collection Study Date/Time (--DTC) variable should be included into dataset, when Collection Study Day (--DY) variable is present.","SDTMIG, SENDIG, SENDIG-AR, SENDIG-DART, SENDIG-GENETOX","3.2, 3.3, 3.4, 3.0, 3.1, 3.1.1, 1.0, 1.1, 1.2","{""Classes"":{""Include"":[""INTERVENTIONS"",""EVENTS"",""FINDINGS"",""FINDINGS ABOUT"",""SPECIAL PURPOSE""]},""Domains"":{""Include"":[""ALL""]}}",Fully Executable,Published
CORE-000156,"CG0294, TIG0476",ARM is not in TA.ARM,Trigger error when ARM is populated and ARM is not in TA.ARM,"SDTMIG, TIG","3.4, 3.2, 3.3, 1.0","{""Classes"":{""Include"":[""TRIAL DESIGN""]},""Domains"":{""Include"":[""TV""]},""Use_Case"":""INDH""}",Fully Executable,Published
CORE-000155,"CG0293, TIG0475",ARMCD is not in TA.ARMCD,Trigger error when ARMCD is populated and ARMCD is not in TA.ARMCD,"SDTMIG, TIG","3.4, 3.2, 3.3, 1.0","{""Classes"":{""Include"":[""TRIAL DESIGN""]},""Domains"":{""Include"":[""TV""]},""Use_Case"":""INDH""}",Fully Executable,Published
CORE-000152,"CG0265, TIG0467",There is not a one-to-one relationship between TSVAL and TSVALCD,"When TSVAL and TSVALCD are populated, there must be a one-to-one relationship between TSVALCD and TSVAL","SDTMIG, TIG","3.4, 3.2, 3.3, 1.0","{""Classes"":{""Include"":[""TRIAL DESIGN""]},""Domains"":{""Include"":[""TS""]},""Use_Case"":""INDH""}",Fully Executable,Published
CORE-000161,"CG0343, TIG0508",'--TERM is equal to 'OTHER',Raise an error when --TERM = 'OTHER',"SDTMIG, TIG","3.4, 3.3, 3.2, 1.0","{""Classes"":{""Include"":[""EVENTS""]},""Domains"":{""Include"":[""ALL""]},""Use_Case"":""INDH""}",Fully Executable,Published
CORE-000148,"CG0258, TIG0462",Length of TSPARM is greater than 40,Trigger error when length of TSPARM value is greater than 40,"SDTMIG, TIG","3.4, 3.2, 3.3, 1.0","{""Classes"":{""Include"":[""TRIAL DESIGN""]},""Domains"":{""Include"":[""TS""]},""Use_Case"":""INDH""}",Fully Executable,Published
CORE-000164,"CG0346, TIG0511",'--TERM is equal to 'MULTIPLE',Raise an error when --TERM = 'MULTIPLE',"SDTMIG, TIG","3.4, 3.3, 3.2, 1.0","{""Classes"":{""Include"":[""EVENTS""]},""Domains"":{""Include"":[""ALL""]},""Use_Case"":""INDH""}",Fully Executable,Published
CORE-000163,"CG0345, TIG0510",'--TRT is equal to 'MULTIPLE',Raise an error when --TRT = 'MULTIPLE',"SDTMIG, TIG","3.4, 3.3, 3.2, 1.0","{""Classes"":{""Include"":[""INTERVENTIONS""]},""Domains"":{""Include"":[""ALL""]},""Use_Case"":""INDH""}",Fully Executable,Published
CORE-000160,"CG0342, TIG0507",'--TRT is equal to 'OTHER',Raise an error when --TRT = 'OTHER',"SDTMIG, TIG","3.4, 3.3, 3.2, 1.0","{""Classes"":{""Include"":[""INTERVENTIONS""]},""Domains"":{""Include"":[""ALL""]},""Use_Case"":""INDH""}",Fully Executable,Published
CORE-000659,FB3410,"AEOUT = ""RECOVERED/NOT RESOLVED"" but AEENDTC has not been completed","The Outcome of Adverse Event (AEOUT) variable is populated with the value RECOVERED/RESOLVED, however the End Date/Time of Adverse Event (AEENDTC) is null.",SDTMIG,"3.2, 3.3, 3.4","{""Classes"":{""Include"":[""EVENTS""]},""Domains"":{""Include"":[""AE""]}}",Fully Executable,Published
CORE-000657,FB3409,"AEENDTC is populated, when AEOUT = NOT RECOVERED/NOT RESOLVED","The Outcome of Adverse Event (AEOUT) variable is populated with the value NOT RECOVERED/NOT RESOLVED, however the End Date/Time of Adverse Event (AEENDTC) variable is populated with an end date for the adverse event. If the adverse event has an outcome of NOT RECOVERED/NOT RESOLVED, it is expected that no end date is available.",SDTMIG,"3.2, 3.3, 3.4","{""Classes"":{""Include"":[""EVENTS""]},""Domains"":{""Include"":[""AE""]}}",Fully Executable,Published
,FB3407,End Date/Time (--ENDTC) must be less than or equal to Date/Time of End of Participation (DM.RFPENDTC),Raise an error when --ENDTC variable value is greater than Date/Time of End of Participation (RFPENDTC).,SDTMIG,3.3,"{""Classes"":{""Include"":[""INTERVENTIONS"",""EVENTS"",""FINDINGS"",""FINDINGS ABOUT""]},""Domains"":{""Include"":[""DI"",""DM"",""DR"",""SE"",""SM"",""SV""]}}",Fully Executable,Draft
CORE-000177,"CG0227, TIG0440","DM.RFENDTC is empty, but --ENRF is completed.",Raise an error when DM.RFENDTC is empty and --ENRF is not empty.,"SDTMIG, TIG","3.4, 3.3, 3.2, 1.0","{""Classes"":{""Include"":[""ALL""]},""Domains"":{""Exclude"":[""DM""]},""Use_Case"":""INDH""}",Fully Executable,Published
,FB3403,EXSTDTC is greater than the maximum DSSTDTC (DSSTDTC),End Date/Time of Treatment (EXENDTC) should be less than or equal to the Start Date/Time of the latest Disposition Event (DSSTDTC).,"SDTMIG, SENDIG, SENDIG-DART, SENDIG-AR, SENDIG-GENETOX","3.2, 3.3, 3.4, 3.0, 3.1, 3.1.1, 1.1, 1.2, 1.0","{""Classes"":{""Include"":[""INTERVENTIONS""]},""Domains"":{""Include"":[""EX""]}}",Fully Executable,Draft
,FB3402,EXSTDTC is greater than the maximum DSSTDTC (DSSTDTC),Start Date/Time of Treatment (EXSTDTC) should be less than or equal to the Start Date/Time of the latest Disposition Event (DSSTDTC).,"SDTMIG, SENDIG, SENDIG-DART, SENDIG-AR, SENDIG-GENETOX","3.2, 3.3, 3.4, 3.0, 3.1, 3.1.1, 1.1, 1.2, 1.0","{""Classes"":{""Include"":[""INTERVENTIONS""]},""Domains"":{""Include"":[""EX""]}}",Fully Executable,Draft
CORE-000262,"CG0226, TIG0439",RFSTDTC in DM dataset is empty but --STRF is completed.,Raise an error when RFSTDTC in DM is empty and --STRF is not empty.,"SDTMIG, TIG","3.4, 3.3, 3.2, 1.0","{""Classes"":{""Include"":[""ALL""]},""Domains"":{""Exclude"":[""DM""]},""Use_Case"":""INDH""}",Fully Executable,Published
CORE-000201,"CG0029, TIG0311, SEND109, TIG0046",USUBJID is not found in DM.USUBJID,Trigger error when domain is not an AP-- domain and USUBJID is not present in DM.USUBJID,"SDTMIG, TIG, SENDIG, SENDIG-DART, SENDIG-GENETOX","3.4, 3.3, 3.2, 1.0, 3.0, 3.1, 3.1.1, 1.1, 1.2","{""Classes"":{""Include"":[""ALL""]},""Domains"":{""Exclude"":[""AP""]},""Use_Case"":""NONCLIN, INDH""}",Fully Executable,Published
CORE-000016,"CG0089, TIG0354","'--PRESP should be populated as ""Y"" when --OCCUR is provided.","Raise an error when --OCCUR is not empty and --PRESP is not equal to ""Y"".","SDTMIG, TIG","3.4, 3.2, 3.3, 1.0","{""Classes"":{""Include"":[""EVENTS"",""INTERVENTIONS""]},""Domains"":{""Exclude"":[""AE"",""DS"",""DV"",""EX""]},""Use_Case"":""INDH""}",Fully Executable,Published
CORE-000139,"CG0223, TIG0437",'--ENDY is not null when either --ENDTC or DM.RFSTDTC do not contain complete values in their date portion,"Trigger error if --ENDTC or DM.RFSTDTC does not contain complete values in their date portion, and --ENDY is not null.","SDTMIG, TIG","3.4, 3.3, 3.2, 1.0","{""Classes"":{""Include"":[""ALL""]},""Domains"":{""Exclude"":[""DM""]},""Use_Case"":""INDH""}",Fully Executable,Published
CORE-000095,"CG0211, TIG0430","ETCD is not 'UNPLAN', when SEUPDES is not empty","Raise an error when SEUPDES ^= null, ETCD ^= 'UNPLAN'","SDTMIG, TIG","3.4, 3.2, 3.3, 1.0","{""Classes"":{""Include"":[""SPECIAL PURPOSE""]},""Domains"":{""Include"":[""SE""]},""Use_Case"":""INDH""}",Fully Executable,Published
CORE-000352,"CG0207, SEND126, TIG0427",SEENDTC is not equal to SESTDTC of the next element.,Trigger error where SEENDTC is not equal to SESTDTC of the next element.,"SDTMIG, SENDIG, TIG","3.4, 3.2, 3.3, 3.0, 1.0","{""Classes"":{""Include"":[""SPECIAL PURPOSE""]},""Domains"":{""Include"":[""SE""]},""Use_Case"":""INDH""}",Fully Executable,Published
CORE-000534,"CG0248, SEND221, TIG0452, TIG0148",TAETORD is not an integer,TAETORD must be an integer,"SDTMIG, SENDIG, SENDIG-DART, SENDIG-GENETOX, TIG","3.4, 3.2, 3.3, 3.0, 3.1, 3.1.1, 1.1, 1.2, 1.0","{""Classes"":{""Include"":[""TRIAL DESIGN""]},""Domains"":{""Include"":[""TA""]},""Use_Case"":""INDH, NONCLIN""}",Fully Executable,Published
CORE-000144,"CG0247, TIG0451",TAETORD is not unique within ARM,Trigger error when TAETORD is not unique within an ARM,"SDTMIG, TIG","3.4, 3.3, 3.2, 1.0","{""Classes"":{""Include"":[""TRIAL DESIGN""]},""Domains"":{""Include"":[""TA""]},""Use_Case"":""INDH""}",Fully Executable,Published
CORE-000020,"CG0206, TIG0426",TAETORD should be null when ETCD = 'UNPLAN'.,"Raise an error when ETCD=""UNPLAN"" and TAETORD is not null.","SDTMIG, TIG","3.4, 3.2, 3.3, 1.0","{""Classes"":{""Include"":[""SPECIAL PURPOSE""]},""Domains"":{""Include"":[""SE""]},""Use_Case"":""INDH""}",Fully Executable,Published
CORE-000228,"CG0179, TIG0408",IETESTCD from IE domain does not exist in IETESTCD of TI domain.,Check if IETESTCD is present in TI.IETESTCD,"SDTMIG, TIG","3.4, 3.2, 3.3, 1.0","{""Classes"":{""Include"":[""FINDINGS""]},""Domains"":{""Include"":[""IE""]},""Use_Case"":""INDH""}",Fully Executable,Published
CORE-000227,"CG0178, TIG0407",IETEST is not in TI.IETEST,Check if IETEST is not in TI.IETEST,"SDTMIG, TIG","3.4, 3.2, 3.3, 1.0","{""Classes"":{""Include"":[""FINDINGS""]},""Domains"":{""Include"":[""IE""]},""Use_Case"":""INDH""}",Fully Executable,Published
CORE-000025,"CG0177, TIG0406",IESTRESC is not equal to IEORRES,IESTRESC is not equal to IEORRES,"SDTMIG, TIG","3.4, 3.2, 3.3, 1.0","{""Classes"":{""Include"":[""FINDINGS""]},""Domains"":{""Include"":[""IE""]},""Use_Case"":""INDH""}",Fully Executable,Published
CORE-000010,"CG0153, TIG0394",ARMCD value length is greater than 20,Verify ARMCD value length is <= 20,"SDTMIG, TIG","3.4, 3.2, 3.3, 1.0","{""Classes"":{""Include"":[""SPECIAL PURPOSE"",""TRIAL DESIGN""]},""Domains"":{""Include"":[""DM"",""TA""]},""Use_Case"":""INDH""}",Fully Executable,Published
CORE-000186,"CG0150, TIG0391",SUBJID is not unique within study,Trigger error if SUBJID is not unique,"SDTMIG, TIG","3.4, 3.2, 3.3, 1.0","{""Classes"":{""Include"":[""SPECIAL PURPOSE""]},""Domains"":{""Include"":[""DM""]},""Use_Case"":""INDH""}",Fully Executable,Published
CORE-000239,"CG0148, TIG0389",RFXSTDTC does not equal the earliest value of EX.EXSTDTC,Raise an error when EX records are present for subject but RFXSTDTC does not equal the earliest value of EX.EXSTDTC,"SDTMIG, TIG","3.4, 3.3, 3.2, 1.0","{""Classes"":{""Include"":[""SPECIAL PURPOSE""]},""Domains"":{""Include"":[""DM""]},""Use_Case"":""INDH""}",Fully Executable,Published
CORE-000238,"CG0147, TIG0388",RFXENDTC does not equal the latest value of EX.EXSTDTC or EX.EXENDTC,Raise an error when EX records are present for subject but RFXENDTC does not equal the latest value of EX.EXSTDTC or EX.EXENDTC,"SDTMIG, TIG","3.4, 3.3, 3.2, 1.0","{""Classes"":{""Include"":[""SPECIAL PURPOSE""]},""Domains"":{""Include"":[""DM""]},""Use_Case"":""INDH""}",Fully Executable,Published
CORE-000185,"CG0123, TIG0380",Length of ACTARMCD is greater than 20 characters,Trigger error if length of ACTARMCD is greater than 20 characters,"SDTMIG, TIG","3.4, 3.2, 3.3, 1.0","{""Classes"":{""Include"":[""SPECIAL PURPOSE""]},""Domains"":{""Include"":[""DM""]},""Use_Case"":""INDH""}",Fully Executable,Published
CORE-000093,"CG0114, TIG0377","Missing value for --DOSU, when --DOSE, --DOSTXT or --DOSTOT is provided",Raise an error when --DOSU = null and (--DOSE ^= null or --DOSTOT ^= null or --DOSTXT ^= null),"SDTMIG, TIG","3.4, 3.2, 3.3, 1.0","{""Classes"":{""Include"":[""INTERVENTIONS""]},""Domains"":{""Include"":[""ALL""]},""Use_Case"":""INDH""}",Fully Executable,Published
CORE-000094,"CG0112, TIG0376",'--DOSTXT value is numeric.,Raise an error if --DOSTXT value is numeric.,"SDTMIG, TIG","3.4, 3.2, 3.3, 1.0","{""Classes"":{""Include"":[""INTERVENTIONS""]},""Domains"":{""Include"":[""ALL""]},""Use_Case"":""INDH""}",Fully Executable,Published
CORE-000222,"CG0416, TIG0571",QLABEL > 40 chars.,Raise an error when QLABEL > 40 chars.,"SDTMIG, TIG","3.4, 3.3, 3.2, 1.0","{""Classes"":{""Include"":[""RELATIONSHIP""]},""Domains"":{""Include"":[""SUPP--""]},""Use_Case"":""INDH, PROD""}",Fully Executable,Published
CORE-000092,"CG0110, CG0111, TIG0374, TIG0375",Both --DOSE and --DOSTXT values are populated,Raise an error when --DOSE ^= null and --DOSTXT ^= null.,"SDTMIG, TIG","3.4, 3.2, 3.3, 1.0","{""Classes"":{""Include"":[""INTERVENTIONS""]},""Domains"":{""Include"":[""ALL""]},""Use_Case"":""INDH""}",Fully Executable,Published
CORE-000137,"CG0100, TIG0365","ECOCCUR is not 'N', ECSTAT and ECDOSTXT are both empty but ECDOSE is less than or equal to 0.","Raise an error when ECOCCUR is not equal to 'N', ECSTAT and ECDOSTXT are both empty but ECDOSE less than or equal to 0.","SDTMIG, TIG","3.4, 3.3, 3.2, 1.0","{""Classes"":{""Include"":[""INTERVENTIONS""]},""Domains"":{""Include"":[""EC""]},""Use_Case"":""INDH""}",Fully Executable,Published
CORE-000004,"CG0101, TIG0366","ECOCCUR indicates dose was not given, but ECDOSE is not blank or has a value less than or equal to 0","When ECOCCUR indicates no dose, then ECDOSE needs to be null or > 0; it cannot be used to indicate a dose wasn't taken.","SDTMIG, TIG","3.4, 3.2, 3.3, 1.0","{""Classes"":{""Include"":[""INTERVENTIONS""]},""Domains"":{""Include"":[""EC""]},""Use_Case"":""INDH""}",Fully Executable,Published
CORE-000168,"CG0034, TIG0315",VISITNUM is not among VISITNUM in SV domain.,If VISITNUM is not null then VISITNUM should be among SV.VISITNUM,"SDTMIG, TIG","3.4, 3.3, 3.2, 1.0","{""Classes"":{""Include"":[""ALL""]},""Domains"":{""Exclude"":[""SV""]},""Use_Case"":""INDH""}",Fully Executable,Published
CORE-000347,"CG0071, TIG0340",DSTERM does not equal 'COMPLETED' or the reason for discontinuation when DSCAT = 'DISPOSITION EVENT',Trigger error when DSCAT = 'DISPOSITION EVENT' and DSTERM does not equal 'COMPLETED' or the reason for discontinuation,"SDTMIG, TIG","3.4, 3.2, 3.3, 1.0","{""Classes"":{""Include"":[""EVENTS""]},""Domains"":{""Include"":[""DS""]},""Use_Case"":""INDH""}",Not Executable,Draft
CORE-000018,"CG0086, TIG0351","'--OCCUR is blank when --PRESP is equal to ""Y"" and --STAT is not provided.","Raise an error when --PRESP is equal to ""Y"", --STAT is blank, --OCCUR is present in dataset and --OCCUR is blank","SDTMIG, TIG","3.4, 3.2, 3.3, 1.0","{""Classes"":{""Include"":[""EVENTS"",""INTERVENTIONS""]},""Domains"":{""Exclude"":[""AE"",""DS"",""DV"",""EX""]},""Use_Case"":""INDH""}",Fully Executable,Published
CORE-000260,"CG0085, TIG0350",'--PRESP does not equal 'Y' or is not empty.,Raise an error when --PRESP does not equal 'Y' or is not empty.,"SDTMIG, TIG","3.4, 3.3, 3.2, 1.0","{""Classes"":{""Include"":[""EVENTS"",""INTERVENTIONS""]},""Domains"":{""Exclude"":[""DS"",""DV"",""EX""]},""Use_Case"":""INDH""}",Fully Executable,Published
CORE-000236,"CG0079, TIG0345",MHSTDTC ^= null and MHSTDTC is on or after the DM.RFSTDTC. The medical history dataset should include the subject's prior history at the start of the trial.,Raise an issue if MHSTDTC has a non-empty date that later than DM.RFSTDTC,"SDTMIG, TIG","3.4, 3.2, 3.3, 1.0","{""Classes"":{""Include"":[""EVENTS""]},""Domains"":{""Include"":[""MH""]},""Use_Case"":""INDH""}",Fully Executable,Published
CORE-000250,"CG0078, TIG0344",MHENDTC ^= null and MHENDTC is on or after the DM.RFSTDTC. The medical history dataset should include the subject's prior history at the start of the trial.,Raise an issue if MHENDTC has a non-empty date that is on or after DM.RFSTDTC,"SDTMIG, TIG","3.4, 3.3, 3.2, 1.0","{""Classes"":{""Include"":[""EVENTS""]},""Domains"":{""Include"":[""MH""]},""Use_Case"":""INDH""}",Fully Executable,Published
CORE-000033,"CG0065, TIG0337","DSDECOD is not equal to ""COMPLETED"" when DSTERM equals ""COMPLETED"".","Raise an error when DSTERM = ""COMPLETED"" and DSDECOD not equal to ""COMPLETED"".","SDTMIG, TIG","3.4, 3.3, 3.2, 1.0","{""Classes"":{""Include"":[""EVENTS""]},""Domains"":{""Include"":[""DS""]},""Use_Case"":""INDH""}",Fully Executable,Published
CORE-000266,"CG0042, TIG0321","If AESER = ""N"" then none of the seriousness criteria (AESCAN, AESCONG, AESDISAB, AESDTH, AESHOSP, AESLIFE, AESOD, AESMIE) could be equal to ""Y"".","Select record where AESCAN and AESCONG and AESDISAB and AESDTH and AESHOSP and AESLIFE and AESOD and AESMIE ^= ""Y"" However, AESER ^= ""N""","SDTMIG, TIG","3.4, 3.2, 3.3, 1.0","{""Classes"":{""Include"":[""EVENTS""]},""Domains"":{""Include"":[""AE""]},""Use_Case"":""INDH""}",Fully Executable,Published
CORE-000022,"CG0041, TIG0320","At least one of the Seriousness criteria (AESCAN, AESCONG, AESDISAB, AESDTH, AESHOSP, AESLIFE, AESOD or AESMIE)  = 'Y', but AESER = 'N' or empty.","Raise an error when AESCAN, AESCONG, AESDISAB, AESDTH, AESHOSP, AESLIFE, AESOD or AESMIE = 'Y' and AESER = 'N' or is empty.","SDTMIG, TIG","3.4, 3.3, 3.2, 1.0","{""Classes"":{""Include"":[""EVENTS""]},""Domains"":{""Include"":[""AE""]},""Use_Case"":""INDH""}",Fully Executable,Published
CORE-000361,"CG0035, TIG0316, FB0919",VISIT and VISITNUM do not have a one-to-one relationship,Trigger error when VISITNUM is present in TV.VISITNUM and does not have a one-to-one relationship with VISIT,"SDTMIG, TIG","3.4, 3.3, 3.2, 1.0","{""Classes"":{""Include"":[""ALL""]},""Domains"":{""Include"":[""ALL""]},""Use_Case"":""INDH""}",Fully Executable,Published
CORE-000270,"CG0033, TIG0314","For a planned visit (SVPRESP = 'Y'), non-missing VISITNUM value must be among those present in TV.VISITNUM. in TV.VISITNUM","Verify when VISITNUM is not null in any given domain and VISITNUM is planned (SVPRESP = 'Y'), then VISIT should be among TV.VISITNUM.","SDTMIG, TIG","3.4, 3.3, 3.2, 1.0","{""Classes"":{""Include"":[""ALL""]},""Domains"":{""Exclude"":[""TV""]},""Use_Case"":""INDH""}",Fully Executable,Published
CORE-000269,"CG0031, TIG0312","For a planned visit (SVPRESP = 'Y'), non-missing VISIT value must be among those present in TV.VISIT.","Verify when VISIT is not null in any given domain and VISIT is planned (SVPRESP = 'Y'), then VISIT should be among TV.VISIT.","SDTMIG, TIG","3.4, 3.3, 3.2, 1.0","{""Classes"":{""Include"":[""ALL""]},""Domains"":{""Exclude"":[""TV""]},""Use_Case"":""INDH""}",Fully Executable,Published
CORE-000598,"CG0413, TIG0568, SEND1, TIG0037",Dataset name does not begin with DOMAIN value,The dataset name must begin with the DOMAIN value.,"SDTMIG, TIG, SENDIG, SENDIG-DART, SENDIG-GENETOX","3.4, 3.2, 3.3, 1.0, 3.0, 3.1, 3.1.1, 1.1, 1.2","{""Classes"":{""Include"":[""ALL""]},""Domains"":{""Exclude"":[""SUPP--"",""RELREC"",""RELREF"",""POOLDEF""]},""Use_Case"":""INDH, PROD, NONCLIN""}",Fully Executable,Published
CORE-000271,"CG0009, TIG0294",EPOCH is not in TA.EPOCH,Raise an error when EPOCH is not in TA.EPOCH,"SDTMIG, TIG","3.4, 3.3, 3.2, 1.0","{""Classes"":{""Include"":[""ALL""]},""Domains"":{""Include"":[""ALL""]},""Use_Case"":""INDH""}",Fully Executable,Published
CORE-000679,FB0608,"When the death flag in DM is set to ""Y"", a record is not present in DS domain with DSDECOD= ""DEATH""","When the death flag in DM is set to ""Y"", a record is present in DS domain with DSDECOD= ""DEATH""",SDTMIG,"3.2, 3.3, 3.4","{""Classes"":{""Include"":[""EVENTS""]},""Domains"":{""Include"":[""DS""]}}",Fully Executable,Published
,FB0501,Age is missing for a non-screen failure subject,"Age should be provided for all subjects, except where not collected for screen failures.",SDTMIG,"3.2, 3.3, 3.4","{""Classes"":{""Include"":[""SPECIAL PURPOSE""]},""Domains"":{""Include"":[""DM""]}}",Fully Executable,Draft
CORE-000351,"CG0151, TIG0392, SEND37, TIG0255",USUBJID is not unique within study,USUBJID must be unique across all studies,"SDTMIG, TIG, SENDIG, SENDIG-DART, SENDIG-GENETOX","3.4, 3.2, 3.3, 1.0, 3.0, 3.1, 3.1.1, 1.1, 1.2","{""Classes"":{""Include"":[""SPECIAL PURPOSE""]},""Domains"":{""Include"":[""DM""]},""Use_Case"":""NONCLIN, INDH""}",Partially Executable,Published
CORE-000049,"CG0507, CG0622, TIG0602, TIG0663",'--USCHFL is present.,Raise an error when --USCHFL is present.,"SDTMIG, TIG","3.4, 3.3, 1.0","{""Classes"":{""Include"":[""ALL""]},""Domains"":{""Include"":[""ALL""]},""Use_Case"":""INDH, PROD""}",Fully Executable,Published
CORE-000245,"CG0510, TIG0605, CG0635, TIG0676",'--NOMDY is present.,Raise an error when --NOMDY is present.,"SDTMIG, TIG","3.4, 3.3, 1.0","{""Classes"":{""Include"":[""ALL""]},""Domains"":{""Include"":[""ALL""]},""Use_Case"":""INDH, PROD""}",Fully Executable,Published
CORE-000246,"CG0511, TIG0606, CG0636, TIG0677",'--NOMLBL is present.,Raise an error when --NOMLBL is present.,"SDTMIG, TIG","3.4, 3.3, 1.0","{""Classes"":{""Include"":[""ALL""]},""Domains"":{""Include"":[""ALL""]},""Use_Case"":""INDH, PROD""}",Fully Executable,Published
CORE-000088,"CG0149, SEND25, TIG0169, TIG0390",SETCD value length is greater than 8,Verify that the length of value in SETCD variable is <= 8,"SDTMIG, SENDIG, SENDIG-DART, SENDIG-GENETOX, TIG","3.4, 3.2, 3.3, 3.0, 3.1, 3.1.1, 1.1, 1.2, 1.0","{""Classes"":{""Include"":[""SPECIAL PURPOSE"",""TRIAL DESIGN""]},""Domains"":{""Include"":[""DM"",""TX""]},""Use_Case"":""INDH, NONCLIN""}",Fully Executable,Published
CORE-000172,"CG0409, SEND249.1, TIG0168, TIG0565",STUDYID is not equal to DM.STUDYID,Raise an error when STUDYID is not equal to DM.STUDYID. The STUDYID in all domains must be the same in all records across the study.,"SDTMIG, SENDIG, SENDIG-DART, SENDIG-GENETOX, TIG","3.4, 3.3, 3.2, 3.1, 3.1.1, 1.1, 1.2, 1.0","{""Classes"":{""Include"":[""ALL""]},""Domains"":{""Include"":[""ALL""]},""Use_Case"":""INDH, NONCLIN""}",Fully Executable,Published
CORE-000154,"CG0268, SEND246, TIG0167, TIG0470",TSSEQ is not unique within TSPARMCD,TSSEQ must be unique within TSPARMCD,"SDTMIG, SENDIG, SENDIG-DART, SENDIG-GENETOX, TIG","3.4, 3.2, 3.3, 3.0, 3.1, 3.1.1, 1.1, 1.2, 1.0","{""Classes"":{""Include"":[""TRIAL DESIGN""]},""Domains"":{""Include"":[""TS""]},""Use_Case"":""INDH, NONCLIN""}",Fully Executable,Published
FDA.SDTMIG.SD1205,SD1205,EXSTDTC date is before RFXSTDTC,Start Date/Time of Treatment (EXSTDTC) variable value must be greater than or equal to Date/Time of First Study Treatment (RFXSTDTC).,"SDTMIG, SENDIG, SENDIG-AR, SENDIG-DART","3.2, 3.3, 3.0, 3.1, 3.1.1, 1.0, 1.1","{""Classes"":{""Include"":[""INTERVENTIONS""]},""Domains"":{""Include"":[""EX""]}}",Fully Executable,Draft
CORE-000675,FB4201,"'--STAT = NOT DONE, but a result (--ORRES, --STRESC and/or --STRESN) is populated","When a test is not done, the result variable should not be populated.","SDTMIG, SENDIG, SENDIG-GENETOX, SENDIG-DART, SENDIG-AR","3.2, 3.3, 3.4, 3.0, 3.1, 3.1.1, 1.0, 1.1, 1.2","{""Classes"":{""Include"":[""FINDINGS"",""FINDINGS ABOUT""]},""Domains"":{""Include"":[""ALL""]}}",Fully Executable,Published
CORE-000147,"CG0257, SEND26, TIG0178, TIG0461",Length of TSPARMCD is greater than 8,Trigger error when length of TSPARMCD is greater than 8,"SDTMIG, SENDIG, SENDIG-DART, SENDIG-GENETOX, TIG","3.4, 3.2, 3.3, 3.0, 3.1, 3.1.1, 1.1, 1.2, 1.0","{""Classes"":{""Include"":[""TRIAL DESIGN""]},""Domains"":{""Include"":[""TS""]},""Use_Case"":""INDH, NONCLIN""}",Fully Executable,Published
CORE-000057,"CG0509, CG0630, TIG0604, TIG0671",FETUSID is present.,FETUSID must not be present in SDTM domains.,"SDTMIG, TIG","3.4, 3.3, 1.0","{""Classes"":{""Include"":[""ALL""]},""Domains"":{""Include"":[""ALL""]},""Use_Case"":""INDH, PROD""}",Fully Executable,Published
CORE-000247,"CG0552, TIG0640, CG0626, TIG0667",'--RESLOC is present.,Raise an error when --RESLOC is present.,"SDTMIG, TIG","3.4, 3.3, 1.0","{""Classes"":{""Include"":[""FINDINGS""]},""Domains"":{""Include"":[""ALL""]},""Use_Case"":""INDH, PROD""}",Fully Executable,Published
CORE-000052,"CG0625, TIG0666",'--IMPLBL is present.,Raise an error when --IMPLBL is present.,"SDTMIG, TIG","3.4, 1.0","{""Classes"":{""Include"":[""FINDINGS""]},""Domains"":{""Include"":[""ALL""]},""Use_Case"":""INDH, PROD""}",Fully Executable,Published
CORE-000672,FB3901,The value of --STNRHI must be higher than the value of --STNRLO,,"SDTMIG, SENDIG, SENDIG-DART, SENDIG-GENETOX, SENDIG-AR","3.2, 3.3, 3.4, 3.0, 3.1, 3.1.1, 1.1, 1.2, 1.0","{""Classes"":{""Include"":[""FINDINGS""]},""Domains"":{""Include"":[""ALL""]}}",Fully Executable,Published
,FB0913,There is not a one-to-one relationship between --TOX and --TOXGR,There must be a one-to-one relationship between --TOXGR and --TOX,"SDTMIG, SENDIG, SENDIG-GENETOX, SENDIG-DART, SENDIG-AR","3.2, 3.3, 3.4, 3.0, 3.1, 3.1.1, 1.0, 1.1, 1.2","{""Classes"":{""Include"":[""EVENTS"",""FINDINGS""]},""Domains"":{""Include"":[""AE"",""MH"",""CE"",""EG"",""LB"",""PC"",""PP""]}}",Fully Executable,Draft
CORE-000132,"CG0154, SEND213, FB0914",ELEMENT and ETCD do not have a one-to-one relationship.,"When ETCD and ELEMENTCD are present, ETCD and  ELEMENT should have a one-to-one relationship.","SDTMIG, SENDIG, SENDIG-DART, SENDIG-GENETOX, SENDIG-AR","3.4, 3.2, 3.3, 3.0, 3.1, 3.1.1, 1.1, 1.2, 1.0","{""Classes"":{""Include"":[""TRIAL DESIGN""]},""Domains"":{""Include"":[""TE"",""TA"",""SE""]}}",Fully Executable,Published
CORE-000256,"CG0210, TIG0429, SEND125.1, TIG0062","Missing value for SEUPDES, when ETCD='UNPLAN'","Raise an error when ETCD = 'UNPLAN', SEUPDES = null","SDTMIG, TIG, SENDIG, SENDIG-DART, SENDIG-GENETOX","3.4, 3.2, 3.3, 1.0, 3.0, 3.1, 3.1.1, 1.1, 1.2","{""Classes"":{""Include"":[""SPECIAL PURPOSE""]},""Domains"":{""Include"":[""SE""]},""Use_Case"":""INDH, NONCLIN""}",Fully Executable,Published
CORE-000321,FB3201,The Study Day of Visit/Collection/Exam (--DY) is not present in the dataset when Date/Time of Collection (--DTC) is present.,Raise an error when Date/Time of Collection (--DTC) is present in the dataset but Study Day of Visit/Collection/Exam (--DY) is not present.,"SDTMIG, SENDIG, SENDIG-AR, SENDIG-DART, SENDIG-GENETOX","3.2, 3.3, 3.4, 3.0, 3.1, 3.1.1, 1.0, 1.1, 1.2","{""Classes"":{""Include"":[""ALL""]},""Domains"":{""Include"":[""ALL""]}}",Fully Executable,Published
CORE-000021,"CG0397, TIG0559",'--STRESC should not be blank when either --ORRES is provided or --DRVFL = 'Y' .,Raise an error when the value for --STRESC is null.,"SDTMIG, TIG","3.4, 3.2, 3.3, 1.0","{""Classes"":{""Include"":[""FINDINGS""]},""Domains"":{""Include"":[""ALL""]},""Use_Case"":""INDH, PROD""}",Fully Executable,Published
CORE-000656,FB2502,Values between ARM and ACTARM are not matching,Values in ARM and ACTARM should match,SDTMIG,"3.2, 3.3, 3.4","{""Classes"":{""Include"":[""SPECIAL PURPOSE""]},""Domains"":{""Include"":[""DM""]}}",Fully Executable,Published
CORE-000655,FB2501,Values between ARMCD and ACTARMCD are not matching,Values in ARMCD and ACTARMCD should match,SDTMIG,"3.2, 3.3, 3.4","{""Classes"":{""Include"":[""SPECIAL PURPOSE""]},""Domains"":{""Include"":[""DM""]}}",Fully Executable,Published
CDISC.SDTMIG.CG0019,CG0019,Records are not unique as per sponsor defined key variables as documented in the define.xml,Trigger error if records are not unique as per sponsor defined key variables as documented in the define.xml,SDTMIG,"3.4, 3.2, 3.3","{""Classes"":{""Include"":[""ALL""]},""Domains"":{""Include"":[""ALL""]}}",Fully Executable,Draft
CORE-000398,"CG0303, SEND276",The label of the variable does not correspond to the label in the IG,Raise an error when the variable label for an IG-variable does not correspond to the variable label in the Implementation Guide.,"SDTMIG, SENDIG, SENDIG-DART, SENDIG-GENETOX","3.2, 3.0, 3.1, 3.1.1, 1.1, 1.2, 1.0","{""Classes"":{""Include"":[""ALL""]},""Domains"":{""Include"":[""ALL""]}}",Fully Executable,Published
CORE-000535,"CG0662, CG0620, SEND130.1, SEND130, TIG0066, TIG0661",'--SEQ is not chronological (based on --STDTC) within USUBJID,Trigger error when the order of --SEQ is not chronological (based on --STDTC) within USUBJID,"SDTMIG, SENDIG, SENDIG-DART, SENDIG-GENETOX, TIG","3.2, 3.3, 3.4, 3.1, 3.0, 3.1.1, 1.1, 1.2, 1.0","{""Classes"":{""Include"":[""SPECIAL PURPOSE""]},""Domains"":{""Include"":[""SM"",""SE""]},""Use_Case"":""NONCLIN, INDH""}",Fully Executable,Published
,FB2604J,"Records with a  last observation before exposure flag  and non missing character standard result value, have missing standard unit value, when standard unit is available on other records for the same assessment (having the same --TESTCD, --CAT, --SCAT, --SPEC, --METHOD values)","Ensure --STRESU is not null when --LOBXFL is ""Y"" and --STRESC is not null, and --STRESU is populated on other records with the same --TESTCD, --CAT, --SCAT, --SPEC, --METHOD values",SDTMIG,3.3,"{""Classes"":{""Include"":[""FINDINGS""]},""Domains"":{""Include"":[""ALL""]}}",Partially Executable,Draft
CORE-000643,FB2601,"BLFL is set to ""Y"", but no value for STRESC is provided",Records with a baseline flag (--BLFL) have a non missing value in character standard result variable (--STRESC),"SDTMIG, SENDIG, SENDIG-GENETOX, SENDIG-DART, SENDIG-AR","3.2, 3.3, 3.4, 3.0, 3.1, 3.1.1, 1.0, 1.1, 1.2","{""Classes"":{""Include"":[""ALL""]},""Domains"":{""Include"":[""ALL""]}}",Fully Executable,Published
CORE-000642,FB4404,'--TPTREF must be populated when --ENINT is populated,'--TPTREF must be populated when --ENINT is populated,"SDTMIG, SENDIG, SENDIG-DART, SENDIG-AR, SENDIG-GENETOX","3.2, 3.3, 3.4, 3.1.1, 1.1, 1.2, 1.0","{""Classes"":{""Include"":[""INTERVENTIONS"",""EVENTS"",""FINDINGS""]},""Domains"":{""Include"":[""ALL""]}}",Fully Executable,Published
CORE-000029,"CG0661, TIG0697","'--TPTNUM exists in a dataset, but --TPT does not exist. When time points are represented in SDTMIG domains, both --TPT and --TPTNUM must be used.",Raise an error when --TPTNUM exists in a dataset and --TPT does not exist.,"SDTMIG, TIG","3.4, 1.0","{""Classes"":{""Include"":[""ALL""]},""Domains"":{""Include"":[""ALL""]},""Use_Case"":""INDH, PROD""}",Fully Executable,Published
CORE-000044,"CG0646, TIG0686",SJ dataset is present.,Raise an error when SJ dataset is present.,"SDTMIG, TIG","3.4, 1.0","{""Classes"":{""Include"":[""ALL""]},""Domains"":{""Include"":[""SJ""]},""Use_Case"":""INDH, PROD""}",Fully Executable,Published
CORE-000067,"CG0640, TIG0681",'--DETECT is present.,Raise an error when --DETECT is present.,"SDTMIG, TIG","3.4, 1.0","{""Classes"":{""Include"":[""ALL""]},""Domains"":{""Include"":[""ALL""]},""Use_Case"":""INDH, PROD""}",Fully Executable,Published
CORE-000066,"CG0639, TIG0680",'--RPENDY is present.,Raise an error when --RPENDY is present.,"SDTMIG, TIG","3.4, 1.0","{""Classes"":{""Include"":[""ALL""]},""Domains"":{""Include"":[""ALL""]},""Use_Case"":""INDH, PROD""}",Fully Executable,Published
CORE-000061,"CG0634, TIG0675",RPPLENDY is present.,Raise an error when RPPLENDY is present.,"SDTMIG, TIG","3.4, 1.0","{""Classes"":{""Include"":[""ALL""]},""Domains"":{""Include"":[""ALL""]},""Use_Case"":""INDH, PROD""}",Fully Executable,Published
CORE-000060,"CG0633, TIG0674",RPPLSTDY is present.,Raise an error when RPPLSTDY is present.,"SDTMIG, TIG","3.4, 1.0","{""Classes"":{""Include"":[""ALL""]},""Domains"":{""Include"":[""ALL""]},""Use_Case"":""INDH, PROD""}",Fully Executable,Published
CORE-000244,"CG0355, TIG0520",'--DETECT must never be used in SDTM-based human trials,Raise an error when --DETECT is present in dataset.,"SDTMIG, TIG","3.4, 3.2, 3.3, 1.0","{""Classes"":{""Include"":[""ALL""]},""Domains"":{""Include"":[""ALL""]},""Use_Case"":""INDH, PROD""}",Fully Executable,Published
CORE-000065,"CG0638, TIG0679",'--RPSTDY is present.,Raise an error when --RPSTDY is present.,"SDTMIG, TIG","3.4, 1.0","{""Classes"":{""Include"":[""ALL""]},""Domains"":{""Include"":[""ALL""]},""Use_Case"":""INDH, PROD""}",Fully Executable,Published
CORE-000064,"CG0637, TIG0678",'--RPDY is present.,Raise an error when --RPDY is present.,"SDTMIG, TIG","3.4, 1.0","{""Classes"":{""Include"":[""ALL""]},""Domains"":{""Include"":[""ALL""]},""Use_Case"":""INDH, PROD""}",Fully Executable,Published
CORE-000059,"CG0632, TIG0673",RPPLDY is present.,Raise an error when RPPLDY is present.,"SDTMIG, TIG","3.4, 1.0","{""Classes"":{""Include"":[""ALL""]},""Domains"":{""Include"":[""ALL""]},""Use_Case"":""INDH, PROD""}",Fully Executable,Published
CORE-000058,"CG0631, TIG0672",RPHASE is present.,Raise an error when RPHASE is present.,"SDTMIG, TIG","3.4, 1.0","{""Classes"":{""Include"":[""ALL""]},""Domains"":{""Include"":[""ALL""]},""Use_Case"":""INDH, PROD""}",Fully Executable,Published
CORE-000055,"CG0628, TIG0669",'--EXCLFL is present.,Raise an error when --EXCLFL is present.,"SDTMIG, TIG","3.4, 1.0","{""Classes"":{""Include"":[""FINDINGS""]},""Domains"":{""Include"":[""ALL""]},""Use_Case"":""INDH, PROD""}",Fully Executable,Published
CORE-000056,"CG0629, TIG0670",'--REASEX is present.,Raise an error when --REASEX is present.,"SDTMIG, TIG","3.4, 1.0","{""Classes"":{""Include"":[""FINDINGS""]},""Domains"":{""Include"":[""ALL""]},""Use_Case"":""INDH, PROD""}",Fully Executable,Published
CORE-000054,"CG0627, TIG0668",'--DTHREL is present.,Raise an error when --DTHREL is present.,"SDTMIG, TIG","3.4, 1.0","{""Classes"":{""Include"":[""FINDINGS""]},""Domains"":{""Include"":[""ALL""]},""Use_Case"":""INDH, PROD""}",Fully Executable,Published
CORE-000116,"CG0619, TIG0660",'--SPCUFL is not null or equal to 'N',"Raise an error when --SPCUFL is not null or equal to ""N""","SDTMIG, TIG","3.4, 1.0","{""Classes"":{""Include"":[""FINDINGS""]},""Domains"":{""Include"":[""ALL""]},""Use_Case"":""INDH, PROD""}",Fully Executable,Published
CORE-000539,"CG0332, TIG0498",Split dataset is present but the two-Letter parent domain is missing.,Raise an error when split domains (i.e three/four-letter domain name) do not have a two-letter parent domain present in the study.,"SDTMIG, TIG","3.4, 3.2, 3.3, 1.0","{""Classes"":{""Include"":[""ALL""]},""Domains"":{""Exclude"":[""RELREC"",""RELSUB"",""SUPP--""]},""Use_Case"":""INDH, PROD""}",Fully Executable,Published
CORE-000051,"CG0624, TIG0665",'--RSTMOD is present.,Raise an error when --RSTMOD is present.,"SDTMIG, TIG","3.4, 1.0","{""Classes"":{""Include"":[""INTERVENTIONS"",""FINDINGS""]},""Domains"":{""Include"":[""ALL""]},""Use_Case"":""INDH, PROD""}",Fully Executable,Published
CORE-000050,"CG0623, TIG0664",'--RSTIND is present.,Raise an error when --RSTIND is present.,"SDTMIG, TIG","3.4, 1.0","{""Classes"":{""Include"":[""INTERVENTIONS"",""FINDINGS""]},""Domains"":{""Include"":[""ALL""]},""Use_Case"":""INDH, PROD""}",Fully Executable,Published
CORE-000616,FB4403,'--TPTREF must be populated when --STINT is populated,'--TPTREF must be populated when --STINT is populated,"SDTMIG, SENDIG, SENDIG-DART, SENDIG-AR, SENDIG-GENETOX","3.2, 3.3, 3.4, 3.1.1, 1.1, 1.2, 1.0","{""Classes"":{""Include"":[""ALL""]},""Domains"":{""Include"":[""ALL""]}}",Fully Executable,Published
CORE-000114,"CG0567, TIG0652",'--EVDTYP is present in a dataset other than MH.,Raise an error when --EVDTYP is present in a dataset other than MH.,"SDTMIG, TIG","3.4, 3.3, 1.0","{""Classes"":{""Include"":[""EVENTS""]},""Domains"":{""Exclude"":[""MH""]},""Use_Case"":""INDH, PROD""}",Fully Executable,Published
CORE-000112,"CG0565, TIG0650",'--CONC is present in a dataset other than MS.,Raise an error when --CONC is present in a dataset other than MS.,"SDTMIG, TIG","3.4, 3.3, 1.0","{""Classes"":{""Include"":[""FINDINGS""]},""Domains"":{""Exclude"":[""MS""]},""Use_Case"":""INDH, PROD""}",Fully Executable,Published
CORE-000113,"CG0566, TIG0651",'--CONCU is present in a dataset other than MS.,Raise an error when --CONCU is present in a dataset other than MS.,"SDTMIG, TIG","3.4, 3.3, 1.0","{""Classes"":{""Include"":[""FINDINGS""]},""Domains"":{""Exclude"":[""MS""]},""Use_Case"":""INDH, PROD""}",Fully Executable,Published
CORE-000182,"CG0310, SEND2, TIG0485, TIG0128",Variable name length is greater than 8.,Raise an error when variable name length is greater than 8.,"SDTMIG, SENDIG, SENDIG-DART, SENDIG-GENETOX, TIG","3.4, 3.2, 3.3, 3.1.1, 3.1, 3.0, 1.1, 1.2, 1.0","{""Classes"":{""Include"":[""ALL""]},""Domains"":{""Include"":[""ALL""]},""Use_Case"":""INDH, PROD, NONCLIN""}",Fully Executable,Published
CORE-000111,"CG0564, TIG0649",'--AGENT is present in a dataset other than MS.,Raise an error when --AGENT is present in a dataset other than MS.,"SDTMIG, TIG","3.4, 3.3, 1.0","{""Classes"":{""Include"":[""FINDINGS""]},""Domains"":{""Exclude"":[""MS""]},""Use_Case"":""INDH, PROD""}",Fully Executable,Published
CORE-000295,"CG0550, TIG0638",'--STREFN is null when --STREFC is populated.,"When --STREFC is populated, --STREFN should also be populated.","SDTMIG, TIG","3.4, 3.3, 1.0","{""Classes"":{""Include"":[""FINDINGS""]},""Domains"":{""Include"":[""ALL""]},""Use_Case"":""INDH, PROD""}",Fully Executable,Published
CORE-000110,"CG0549, TIG0637",'--STREFC is null when --ORREF is non-empty or --DRVFL is equal to 'Y',Raise an error when (--ORREF ^= null or --DRVFL='Y') and --STREFC is null.,"SDTMIG, TIG","3.4, 3.3, 1.0","{""Classes"":{""Include"":[""FINDINGS""]},""Domains"":{""Include"":[""ALL""]},""Use_Case"":""INDH, PROD""}",Fully Executable,Published
CORE-000019,"CG0311, SEND3, TIG0486, TIG0211",Variable label length should be less than or equal to 40 characters,Raise and error if Variable label length > 40 characters,"SDTMIG, SENDIG, SENDIG-DART, SENDIG-GENETOX, TIG","3.4, 3.2, 3.3, 3.1, 3.1.1, 3.0, 1.1, 1.2, 1.0","{""Classes"":{""Include"":[""ALL""]},""Domains"":{""Include"":[""ALL""]},""Use_Case"":""INDH, PROD, NONCLIN""}",Fully Executable,Published
CORE-000026,"CG0468, TIG0598",The --TPTNUM variable does not exist when --TPT does exist.,"When --TPT is present in a dataset, --TPTNUM must also be present.","SDTMIG, TIG","3.4, 3.2, 3.3, 1.0","{""Classes"":{""Include"":[""ALL""]},""Domains"":{""Include"":[""ALL""]},""Use_Case"":""INDH, PROD""}",Fully Executable,Published
CORE-000074,"CG0508, TIG0603",'--IMPLBL is present.,Raise an error when --IMPLBL is present.,"SDTMIG, TIG","3.4, 3.3, 1.0","{""Classes"":{""Include"":[""ALL""]},""Domains"":{""Include"":[""ALL""]},""Use_Case"":""INDH, PROD""}",Fully Executable,Published
CORE-000118,"CG0404, TIG0562","'--STAT is not present in dataset when --PRESP is equal to ""Y"" and --OCCUR is blank",Raise an error when --PRESP is equal to 'Y' and --OCCUR is empty and --STAT is not present in dataset.,"SDTMIG, TIG","3.4, 3.2, 3.3, 1.0","{""Classes"":{""Include"":[""EVENTS"",""INTERVENTIONS""]},""Domains"":{""Exclude"":[""DS"",""DV"",""EX""]},""Use_Case"":""INDH, PROD""}",Fully Executable,Published
CORE-000101,"CG0427, TIG0581","Missing --STRESC value, when --RESCAT value is populated.","Raise an error when --RESCAT is not empty, but --STRESC is empty","SDTMIG, TIG","3.4, 3.2, 3.3, 1.0","{""Classes"":{""Include"":[""FINDINGS""]},""Domains"":{""Include"":[""ALL""]},""Use_Case"":""INDH, PROD""}",Fully Executable,Published
CORE-000180,"CG0308, TIG0483",Domain value length is not equal 2.,Raise an error when DOMAIN value length is not equal 2.,"SDTMIG, TIG","3.4, 3.2, 3.3, 1.0","{""Classes"":{""Exclude"":[""RELATIONSHIP""]},""Domains"":{""Exclude"":[""AP--""]},""Use_Case"":""INDH, PROD""}",Fully Executable,Published
CORE-000207,"CG0467, SEND78, TIG0597, TIG0276",'--STDTC is present in a Findings general observation class,Trigger error when --STDTC is present in a Findings general observation class,"SDTMIG, SENDIG, SENDIG-DART, SENDIG-GENETOX, TIG","3.4, 3.2, 3.3, 3.0, 3.1, 3.1.1, 1.1, 1.2, 1.0","{""Classes"":{""Include"":[""FINDINGS""]},""Domains"":{""Include"":[""ALL""]},""Use_Case"":""INDH, PROD, NONCLIN""}",Fully Executable,Published
CORE-000218,"CG0465, SEND118, TIG0595, TIG0055",IDVAR is empty but IDVARVAL is not empty,Raise an error when IDVAR is empty and IDVARVAL is not empty,"SDTMIG, SENDIG, SENDIG-DART, SENDIG-GENETOX, TIG","3.4, 3.3, 3.2, 3.0, 3.1, 3.1.1, 1.1, 1.2, 1.0","{""Classes"":{""Include"":[""SPECIAL PURPOSE"",""RELATIONSHIP""]},""Domains"":{""Include"":[""CO"",""SUPP--""]},""Use_Case"":""INDH, PROD, NONCLIN""}",Fully Executable,Published
CORE-000133,"CG0426, TIG0580","Missing value for --STRESC, when --STRESU is provided","When --STRESU is populated, --STRESC must also be populated. Please note that this rule, as executed, cannot check if --STRESC is populated with the standardized unit.","SDTMIG, TIG","3.4, 3.2, 3.3, 1.0","{""Classes"":{""Include"":[""FINDINGS""]},""Domains"":{""Include"":[""ALL""]},""Use_Case"":""INDH, PROD""}",Fully Executable,Published
CORE-000099,"CG0422, TIG0577","Value for --STAT is populated, when --ORRES is populated",Raise an error when both --ORRES and --STAT values are populated,"SDTMIG, TIG","3.4, 3.2, 3.3, 1.0","{""Classes"":{""Include"":[""FINDINGS""]},""Domains"":{""Include"":[""ALL""]},""Use_Case"":""INDH, PROD""}",Fully Executable,Published
CORE-000202,"CG0419, TIG0574",RELTYPE is populated when IDVAR is populated with a 'SEQ' value.,"When IDVAR is populated with a --SEQ value, RELTYPE must be null.","SDTMIG, TIG","3.4, 3.2, 3.3, 1.0","{""Classes"":{""Include"":[""RELATIONSHIP""]},""Domains"":{""Include"":[""RELREC""]},""Use_Case"":""INDH, PROD""}",Fully Executable,Published
CORE-000221,"CG0417, TIG0572","QNAM > 8 chars or contains letters that are in not in uppercase, more than only letters, numbers, underscores, or starts with a number.","Raise an error when QNAM > 8 chars or contains more than only letters in uppercase, numbers and underscores, or starts with a number.","SDTMIG, TIG","3.4, 3.3, 3.2, 1.0","{""Classes"":{""Include"":[""RELATIONSHIP""]},""Domains"":{""Include"":[""SUPP--""]},""Use_Case"":""INDH, PROD""}",Fully Executable,Published
CORE-000203,"CG0411, TIG0567","The combination of IDVAR, IDVARVAL, and QNAM is not unique per parent subject record","Trigger error when the combination of IDVAR, IDVARVAL, and QNAM is not unique per parent subject record","SDTMIG, TIG","3.4, 3.2, 3.3, 1.0","{""Classes"":{""Include"":[""ALL""]},""Domains"":{""Include"":[""SUPP--""]},""Use_Case"":""INDH, PROD""}",Fully Executable,Published
CORE-000199,"CG0406, SEND64, TIG0563",Value length of --TEST > 40.,Raise an error when length of --TEST > 40.,"SDTMIG, SENDIG, SENDIG-DART, SENDIG-GENETOX, TIG","3.4, 3.3, 3.2, 3.0, 3.1, 3.1.1, 1.1, 1.2, 1.0","{""Classes"":{""Include"":[""FINDINGS""]},""Domains"":{""Exclude"":[""IE""]},""Use_Case"":""INDH, PROD""}",Fully Executable,Published
CORE-000541,"CG0372, TIG0536","IETESTCD > 8 chars or contains more than only letters, numbers, underscores, or starts with a number.","Part B - Raise an error when IETESTCD > 8 chars or contains more than only letters, numbers and underscores, or starts with a number.","SDTMIG, TIG","3.4, 3.3, 3.2, 1.0","{""Classes"":{""Include"":[""TRIAL DESIGN""]},""Domains"":{""Include"":[""ALL""]},""Use_Case"":""INDH, PROD""}",Fully Executable,Published
CORE-000220,"CG0372, TIG0536","'--TESTCD > 8 chars or contains more than only letters, numbers, underscores, or starts with a number.","Part A - Raise an error when --TESTCD > 8 chars or contains more than only letters, numbers and underscores, or starts with a number.","SDTMIG, TIG","3.4, 3.3, 3.2, 1.0","{""Classes"":{""Include"":[""FINDINGS""]},""Domains"":{""Include"":[""ALL""]},""Use_Case"":""INDH, PROD""}",Fully Executable,Published
CORE-000502,"CG0369, TIG0533",RDOMAIN does not represent a dataset present in the study.,Raise an error when RDOMAIN is populated but the referenced RDOMAIN doesn't exist as a dataset in the present study,"SDTMIG, TIG","3.4, 3.2, 3.3, 1.0","{""Classes"":{""Include"":[""ALL""]},""Domains"":{""Include"":[""CO"",""RELREC"",""SUPP--""]},""Use_Case"":""INDH, PROD""}",Fully Executable,Published
CORE-000159,"CG0341, TIG0506",'--TESTCD is equal to 'OTHER',Raise an error when --TESTCD = 'OTHER',"SDTMIG, TIG","3.4, 3.3, 3.2, 1.0","{""Classes"":{""Include"":[""FINDINGS""]},""Domains"":{""Include"":[""ALL""]},""Use_Case"":""INDH, PROD""}",Fully Executable,Published
CORE-000219,"CG0350, SEND44, TIG0515",'--SCAT is equal to domain dataset label.,Raise an error when --SCAT = domain dataset label.,"SDTMIG, SENDIG, SENDIG-GENETOX, SENDIG-DART, TIG","3.4, 3.3, 3.2, 3.0, 3.1, 3.1.1, 1.0, 1.1, 1.2","{""Classes"":{""Include"":[""ALL""]},""Domains"":{""Include"":[""ALL""]},""Use_Case"":""INDH, PROD""}",Fully Executable,Published
CORE-000272,"CG0336, SEND46, TIG0501",'--CAT is equal to DOMAIN.,Raise an error when --CAT = DOMAIN.,"SDTMIG, SENDIG, SENDIG-DART, SENDIG-GENETOX, TIG","3.4, 3.3, 3.2, 3.0, 3.1, 3.1.1, 1.1, 1.2, 1.0","{""Classes"":{""Include"":[""ALL""]},""Domains"":{""Include"":[""ALL""]},""Use_Case"":""INDH, PROD""}",Fully Executable,Published
CORE-000538,"CG0334, TIG0500",RDOMAIN does not match characters 5 and 6 of the dataset name,Trigger error when RDOMAIN does not match characters 5 and 6 of the Supplementary dataset name,"SDTMIG, TIG","3.4, 3.2, 3.3, 1.0","{""Classes"":{""Include"":[""ALL""]},""Domains"":{""Include"":[""SUPP--""]},""Use_Case"":""INDH, PROD""}",Fully Executable,Published
CORE-000014,"CG0087, TIG0352","'--OCCUR should only be provided when --PRESP is equal to ""Y"".","Raise an error when --PRESP is not equals to ""Y"" and --OCCUR is present in dataset or --STAT is equal to ""NOT DONE"" and --OCCUR is not blank","SDTMIG, TIG","3.4, 3.2, 3.3, 1.0","{""Classes"":{""Include"":[""EVENTS"",""INTERVENTIONS""]},""Domains"":{""Exclude"":[""AE"",""DS"",""DV"",""EX""]},""Use_Case"":""INDH, PROD""}",Fully Executable,Published
CORE-000081,"CG0056, TIG0330",'--STAT is present when --PRESP is not present.,Raise an error when --PRESP is not present but --STAT is present.,"SDTMIG, TIG","3.4, 3.3, 3.2, 1.0","{""Classes"":{""Include"":[""EVENTS"",""INTERVENTIONS""]},""Domains"":{""Exclude"":[""DS"",""DV"",""EX""]},""Use_Case"":""INDH, PROD""}",Fully Executable,Published
CORE-000117,"CG0081, TIG0346",'--STAT should equal 'NOT DONE' when --PRESP = 'Y' and --OCCUR = null,Raise an error when --STAT not equal to 'NOT DONE' when --PRESP = 'Y' and --OCCUR is null,"SDTMIG, TIG","3.4, 3.2, 3.3, 1.0","{""Classes"":{""Include"":[""EVENTS"",""INTERVENTIONS""]},""Domains"":{""Exclude"":[""DS"",""DV"",""EX""]},""Use_Case"":""INDH, PROD""}",Fully Executable,Published
CORE-000135,"CG0204, TIG0424",IDVAR is not empty but IDVARVAL is empty.,Raise an error when IDVAR is not empty and IDVARVAL is empty.,"SDTMIG, TIG","3.4, 3.3, 3.2, 1.0","{""Classes"":{""Include"":[""RELATIONSHIP""]},""Domains"":{""Include"":[""SUPP--""]},""Use_Case"":""INDH, PROD""}",Fully Executable,Published
CORE-000134,"CG0203, TIG0423",RDOMAIN is not 'DM' but IDVAR is empty.,Raise an error when RDOMAIN ^= 'DM' and IDVAR is empty.,"SDTMIG, TIG","3.4, 3.3, 3.2, 1.0","{""Classes"":{""Include"":[""RELATIONSHIP""]},""Domains"":{""Include"":[""SUPP--""]},""Use_Case"":""INDH, PROD""}",Fully Executable,Published
CORE-000225,"CG0094, TIG0359","'--STAT should be ""NOT DONE"" when --REASND is provided.","Raise an error when --REASND is provided and --STAT is not equal to ""NOT DONE"".","SDTMIG, TIG","3.4, 3.2, 3.3, 1.0","{""Classes"":{""Include"":[""ALL""]},""Domains"":{""Exclude"":[""EX"",""AE"",""DS"",""DV"",""IE""]},""Use_Case"":""INDH, PROD""}",Fully Executable,Published
CORE-000166,"CG0091, TIG0356",'--TPT is not present when --TPTNUM is present in a dataset,Raise an error when --TPT is not present but --TPTNUM is present in dataset.,"SDTMIG, TIG","3.4, 1.0","{""Classes"":{""Include"":[""ALL""]},""Domains"":{""Include"":[""ALL""]},""Use_Case"":""INDH, PROD""}",Fully Executable,Published
CORE-000015,"CG0088, TIG0353",'--PRESP is missing in dataset when --OCCUR is present.,Raise an error when --PRESP does not exists in a dataset and --OCCUR exist.,"SDTMIG, TIG","3.4, 3.2, 3.3, 1.0","{""Classes"":{""Include"":[""EVENTS"",""INTERVENTIONS""]},""Domains"":{""Exclude"":[""AE"",""DS"",""DV"",""EX""]},""Use_Case"":""INDH, PROD""}",Fully Executable,Published
CORE-000030,"CG0053, TIG0329",'--REASND should not be present in dataset when --PRESP is not present in dataset,Raise and error when --REASND is present in dataset and --PRESP is not present in dataset,"SDTMIG, TIG","3.4, 3.3, 3.2, 1.0","{""Classes"":{""Include"":[""EVENTS"",""INTERVENTIONS""]},""Domains"":{""Exclude"":[""DS"",""DV"",""EX""]},""Use_Case"":""INDH, PROD""}",Fully Executable,Published
CORE-000355,"CG0014, SEND12, TIG0299, TIG0057",At least one required variable is missing from dataset,Part A: Raise an error when a Required variable is not present in the dataset.,"SDTMIG, SENDIG, SENDIG-DART, SENDIG-GENETOX, TIG","3.2, 3.3, 3.4, 3.0, 3.1, 3.1.1, 1.1, 1.2, 1.0","{""Classes"":{""Include"":[""ALL""]},""Domains"":{""Include"":[""ALL""]},""Use_Case"":""INDH, PROD, NONCLIN""}",Fully Executable,Published
CORE-000354,"CG0007, TIG0292","The date portion of --DTC is not complete date or the date portion of DM.RFSTDTC is not complete date, but --DY is not empty","Raise an error when the date portion of --DTC is an incomplete date or the date portion of DM.RFSTDTC is an incomplete date, but --DY is not empty","SDTMIG, TIG","3.4, 3.3, 3.2, 1.0","{""Classes"":{""Include"":[""ALL""]},""Domains"":{""Include"":[""ALL""]},""Use_Case"":""INDH""}",Fully Executable,Published
FB2602,FB2602,"LOBXFL is set to ""Y"", but no value for STRESC is provided",Records with a last observation before exposure flag (--LOBXFL) have a non missing value in character standard result variable (--STRESC),SDTMIG,"3.3, 3.4","{""Classes"":{""Include"":[""FINDINGS""]},""Domains"":{""Include"":[""ALL""]}}",Fully Executable,Draft
CDISC.SDTMIG.CG0663,CG0663,AP Core Domain does not have a value length of 4 characters beginning with 'AP' and ending with 2 character SDTM domain,Raise an error when an AP Core Domain does not have a value length of 4 characters beginning with 'AP' and ending with 2 character SDTM domain,SDTMIG,3.4,"{""Classes"":{""Include"":[""ALL""]},""Domains"":{""Include"":[""AP--""]}}",Fully Executable,Draft
CORE-000587,CG0284,TSVAL must be an integer greater than zero when TSPARMCD is NARMS,Check that TVAL is an integer > 0 when TSPARMCD is NARMS,SDTMIG,"3.2, 3.3","{""Classes"":{""Include"":[""TRIAL DESIGN""]},""Domains"":{""Include"":[""TS""]}}",Fully Executable,Published
CORE-000586,CG0398,Multiple records exist within the same EPOCH for a subject when DSCAT = DISPOSITION EVENT,Raise an error when DSCAT = DISPOSITION EVENT and there is more than one record per subject for an EPOCH,SDTMIG,3.2,"{""Classes"":{""Include"":[""EVENTS""]},""Domains"":{""Include"":[""DS""]}}",Fully Executable,Published
CORE-000582,CG0262,TSVALn is null when TSVAL(n+1) is populated.,Raise an error when TSVAL(n+1) ^= null and TSVALn = null,SDTMIG,"3.4, 3.2, 3.3","{""Classes"":{""Include"":[""TRIAL DESIGN""]},""Domains"":{""Include"":[""TS""]}}",Fully Executable,Published
CORE-000579,CG0408,Dataset has no record.,Raise an error when a dataset has no records.,SDTMIG,"3.4, 3.2, 3.3","{""Classes"":{""Include"":[""ALL""]},""Domains"":{""Include"":[""ALL""]}}",Fully Executable,Published
CORE-000564,CG0458,TSPARMCD = INDIC or TSPARMCD = TDIGRP but TSVCDREF is not equal to 'SNOMED'.,Raise an error when TSPARMCD = INDIC or TSPARMCD = TDIGRP but TSVCDREF is not equal to 'SNOMED'.,SDTMIG,"3.2, 3.3","{""Classes"":{""Include"":[""TRIAL DESIGN""]},""Domains"":{""Include"":[""TS""]}}",Fully Executable,Published
CORE-000563,CG0282,TSVAL must be either Y or N when TSPARMCD is ADAPT,TSVAL must be either Y or N when TSPARMCD is ADAPT,SDTMIG,"3.2, 3.3","{""Classes"":{""Include"":[""TRIAL DESIGN""]},""Domains"":{""Include"":[""TS""]}}",Fully Executable,Published
CORE-000562,CG0273,A record exists in TS where TSPARMCD = HLTSUBJI and TSVAL = N but TSVAL for TSPARMCD = TDIGRP is empty.,Raise an error when a record exists in TS where TSPARMCD = HLTSUBJI and TSVAL = N but TSVAL for TSPARMCD = TDIGRP is empty.,SDTMIG,"3.2, 3.3","{""Classes"":{""Include"":[""TRIAL DESIGN""]},""Domains"":{""Include"":[""TS""]}}",Fully Executable,Published
CDISC.SDTMIG.CG0238,CG0238,'--ORRES date/time value is not in ISO 8601 date format,"Where -ORRES is a date or time, it must be entered in an ISO 8601 format",SDTMIG,"3.4, 3.2, 3.3","{""Classes"":{""Include"":[""FINDINGS""]},""Domains"":{""Include"":[""ALL""]}}",Partially Executable,Draft
CORE-000543,CG0127,ARMCD does not equal ACTARMCD when subject is either a screen failure or not assigned to treatment,"Raise an error when ACTARMCD equals ""SCRFNFAIL"" or ""NOTASSGN"" but ARMCD doesn't equal ACTARMCD.",SDTMIG,3.2,"{""Classes"":{""Include"":[""SPECIAL PURPOSE""]},""Domains"":{""Include"":[""DM""]}}",Fully Executable,Published
CORE-000211,CG0528,Population flag is present in SUPPDM,SUPPDM must not include population flags.,SDTMIG,"3.4, 3.3","{""Classes"":{""Include"":[""RELATIONSHIP""]},""Domains"":{""Include"":[""SUPP--""]}}",Fully Executable,Published
CDISC.SDTMIG.CG0347,CG0347,"'--ORRES is equal to MULTIPLE when it is not a valid response in the context of the finding (e.g., Questionnaire CT)","Trigger error when --ORRES is equal to MULTIPLE when it is not a valid response in the context of the finding (e.g., Questionnaire CT)",SDTMIG,"3.4, 3.2, 3.3","{""Classes"":{""Include"":[""FINDINGS""]},""Domains"":{""Include"":[""ALL""]}}",Fully Executable,Draft
CDISC.SDTMIG.CG0188,CG0188,LBORNRLO is not expressed using the units in LBSTRESU,Trigger error if LBORNRLO is not expressed using the units in LBSTRESU,SDTMIG,"3.4, 3.2, 3.3","{""Classes"":{""Include"":[""FINDINGS""]},""Domains"":{""Include"":[""LB""]}}",Fully Executable,Draft
CORE-000305,FB4005,Negative value for --DUR,Value for duration (--DUR) should not be negative.,"SDTMIG, SENDIG, SENDIG-GENETOX, SENDIG-DART, SENDIG-AR","3.2, 3.3, 3.4, 3.0, 3.1, 3.1.1, 1.0, 1.1, 1.2","{""Classes"":{""Include"":[""ALL""]},""Domains"":{""Include"":[""ALL""]}}",Fully Executable,Published
CORE-000533,CG0138,A SUPP domain other than SUPPDM contains population flags (name fragments reserved),,SDTMIG,3.2,"{""Classes"":{""Include"":[""RELATIONSHIP""]},""Domains"":{""Exclude"":[""SUPPDM""]}}",Fully Executable,Published
CORE-000532,CG0275,A record exists in TS where TSPARMCD = ADDON and TSVAL = Y but TSVAL for TSPARMCD = CURTRT is empty.,Raise an error when a record exists in TS where TSPARMCD = ADDON and TSVAL = Y but TSVAL for TSPARMCD = CURTRT is empty.,SDTMIG,"3.2, 3.3","{""Classes"":{""Include"":[""TRIAL DESIGN""]},""Domains"":{""Include"":[""TS""]}}",Fully Executable,Published
CORE-000531,"CG0126, CG0128",DM.ARMCD must equal SCRNFAIL or NOTASSGN if the value is not present in TA.ARMCD,"ARMCD values in Demographics are restricted to ARMCD values in  Trial Arms when DM.ARMCD is not equal to ""SCRNFAIL"" or ""NOTASSGN""",SDTMIG,3.2,"{""Classes"":{""Include"":[""SPECIAL PURPOSE""]},""Domains"":{""Include"":[""DM""]}}",Fully Executable,Published
CDISC.SDTMIG.CG0555,CG0555,Parameter is non-normalized and terminology for PPORRESU is not for a non-normalized parameter,Trigger error when parameter is non-normalized and terminology for PPORRESU is not for a non-normalized parameter,SDTMIG,"3.4, 3.3","{""Classes"":{""Include"":[""FINDINGS""]},""Domains"":{""Include"":[""PP""]}}",Fully Executable,Draft
CORE-000181,CG0309,AP-- Domain value length is not equal to 4.,Raise an error when AP-- domain value length is not equal to 4.,SDTMIG,"3.4, 3.2, 3.3","{""Classes"":{""Include"":[""ALL""]},""Domains"":{""Include"":[""AP--""]}}",Fully Executable,Published
CORE-000226,CG0352,'--DTHREL must never be used in SDTM-based data for human clinical trials,Verifying presence of SEND variable --DTHREL,SDTMIG,"3.4, 3.2, 3.3","{""Classes"":{""Include"":[""ALL""]},""Domains"":{""Include"":[""ALL""]}}",Fully Executable,Published
CORE-000230,CG0362,USUBJID must be null when POOLID is populated,"Verify that when POOLID is populated, USUBJID is not populated",SDTMIG,"3.4, 3.2, 3.3","{""Classes"":{""Include"":[""ALL""]},""Domains"":{""Include"":[""RELSUB""]}}",Fully Executable,Published
CORE-000231,CG0363,RSUBJID when populated cannot equal USUBJID,"Verify that when RSUBJID populated, RSUBJID does not equal USUBJID",SDTMIG,"3.4, 3.2, 3.3","{""Classes"":{""Include"":[""ALL""]},""Domains"":{""Include"":[""RELSUB""]}}",Fully Executable,Published
CORE-000235,CG0367,RSUBJID must equal DM.USUBJID when RSUBJID is populated and RSUBJID does not equal POOLID,Verify that RSUBJID=DM.USUBJID when RSUBJID is populated and RSUBJID is not equal to POOLID,SDTMIG,"3.4, 3.2, 3.3","{""Classes"":{""Include"":[""ALL""]},""Domains"":{""Include"":[""AP--""]}}",Fully Executable,Published
CORE-000522,FB1401,DSCAT is not populated.,Category for Disposition Event (DSCAT) should be populated.,SDTMIG,"3.2, 3.3, 3.4","{""Classes"":{""Include"":[""EVENTS""]},""Domains"":{""Include"":[""DS""]}}",Fully Executable,Published
CORE-000518,FB4004,'--VAMT is lower than zero,Value for Treatment Vehicle Amount (--VAMT) should not be negative,"SDTMIG, SENDIG, SENDIG-GENETOX, SENDIG-DART, SENDIG-AR","3.2, 3.3, 3.4, 3.0, 3.1, 3.1.1, 1.0, 1.1, 1.2","{""Classes"":{""Include"":[""INTERVENTIONS""]},""Domains"":{""Include"":[""ALL""]}}",Fully Executable,Published
CORE-000517,FB4003,'--DOSTOT is lower than zero,Value for Total Daily Dose (--DOSTOT) should not be negative,"SDTMIG, SENDIG, SENDIG-GENETOX, SENDIG-DART, SENDIG-AR","3.2, 3.3, 3.4, 3.0, 3.1, 3.1.1, 1.0, 1.1, 1.2","{""Classes"":{""Include"":[""INTERVENTIONS""]},""Domains"":{""Include"":[""ALL""]}}",Fully Executable,Published
CORE-000308,FB4002,'--DOSE is lower than zero,Value for --DOSE should not be negative,"SDTMIG, SENDIG, SENDIG-GENETOX, SENDIG-DART, SENDIG-AR","3.2, 3.3, 3.4, 3.0, 3.1, 3.1.1, 1.0, 1.1, 1.2","{""Classes"":{""Include"":[""INTERVENTIONS""]},""Domains"":{""Include"":[""ALL""]}}",Fully Executable,Published
CORE-000310,FB4001,AGE is lower than zero,Value for AGE should not be negative,"SDTMIG, SENDIG, SENDIG-GENETOX, SENDIG-DART, SENDIG-AR","3.2, 3.3, 3.4, 3.0, 3.1, 3.1.1, 1.0, 1.1, 1.2","{""Classes"":{""Include"":[""SPECIAL PURPOSE""]},""Domains"":{""Include"":[""DM""]}}",Fully Executable,Published
CORE-000516,FB3601,Negative value of Study Day variable,Study Day variables (--DY) value should not be negative in Exposure (EC/EX) datasets.,"SDTMIG, SENDIG, SENDIG-GENETOX, SENDIG-DART, SENDIG-AR","3.2, 3.3, 3.4, 3.0, 3.1, 3.1.1, 1.0, 1.1, 1.2","{""Classes"":{""Include"":[""INTERVENTIONS""]},""Domains"":{""Include"":[""EC"",""EX""]}}",Fully Executable,Published
CORE-000515,CG0412,"DM.ACTARMCD does not equal ""SCRNFAIL"", ""NOTASSGN"" or ""NOTTRT"" but there are no DS records for the same subject","Raise an error when DM.ACTARMCD does not equal ""SCRNFAIL"", ""NOTASSGN"" or ""NOTTRT"", and there are no DS records for the same subject",SDTMIG,3.2,"{""Classes"":{""Include"":[""ALL""]},""Domains"":{""Include"":[""DM""]}}",Fully Executable,Published
FDA.SDTMIG.SD1097,FB0101,The treatment-emergent flag is missing,"For each record in AE, a treatment-emergent flag should be present in SUPPAE",SDTMIG,"3.2, 3.3, 3.4","{""Classes"":{""Include"":[""ALL""]},""Domains"":{""Include"":[""AE""]}}",Fully Executable,Draft
CORE-000510,CG0017,Split dataset name is not 3 or 4 characters in length,Split datasets (excluding supplemental qualifiers) is expected to have a have a length of 3 or 4 characters,SDTMIG,"3.4, 3.2, 3.3","{""Classes"":{""Include"":[""ALL""]},""Domains"":{""Exclude"":[""SUPP--"",""AP--""],""include_split_datasets"":true}}",Fully Executable,Published
CORE-000506,CG0286,Invalid date for TSVAL for TSPARMCD = SENDTC (Study End Date),Raise an error when TSVAL for TSPARMCD=SENDTC is not a valid date/time,SDTMIG,"3.2, 3.3","{""Classes"":{""Include"":[""TRIAL DESIGN""]},""Domains"":{""Include"":[""TS""]}}",Fully Executable,Published
CORE-000504,CG0283,Invalid date for TSVAL for TSPARMCD = DCUTDTC (Data Cutoff Date),Raise an error when TSVAL for TSPARMCD=DCUTDTC is not a valid date/time,SDTMIG,"3.2, 3.3","{""Classes"":{""Include"":[""TRIAL DESIGN""]},""Domains"":{""Include"":[""TS""]}}",Fully Executable,Published
CORE-000501,CG0216,VISITDY is populated when SVUPDES is also populated.,Raise an error if SVUPDES is not null when VISITDY is populated.,SDTMIG,"3.2, 3.3","{""Classes"":{""Include"":[""SPECIAL PURPOSE""]},""Domains"":{""Include"":[""SV""]}}",Fully Executable,Published
CORE-000497,CG0279,A record exists in TS where TSPARMCD = STYPE and TSVAL = INTERVENTIONAL but TSVAL for TSPARMCD = PCLAS is empty when PCLAS is applicable.,Raise an error when a record exists in TS where TSPARMCD = STYPE and TSVAL = INTERVENTIONAL but TSVAL for TSPARMCD = TPCLAS is empty but applicable.,SDTMIG,"3.2, 3.3","{""Classes"":{""Include"":[""TRIAL DESIGN""]},""Domains"":{""Include"":[""TS""]}}",Partially Executable - Possible Overreporting,Published
CDISC.SDTMIG.CG0559,CG0559,Parameter is normalized by dose amount and terminology of PPSTRESU is not a parameter normalized by dose amount,Trigger error when parameter is normalized by dose amount and terminology of PPSTRESU is not a parameter normalized by dose amount,SDTMIG,"3.4, 3.3","{""Classes"":{""Include"":[""FINDINGS""]},""Domains"":{""Include"":[""PP""]}}",Fully Executable,Draft
CDISC.SDTMIG.CG0560,CG0560,Parameter is normalized by weight and terminology for PPSTRESU is not for a parameter not normalized by weight,Trigger error when parameter is normalized by weight and terminology for PPSTRESU is not for a parameter not normalized by weight,SDTMIG,"3.4, 3.3","{""Classes"":{""Include"":[""FINDINGS""]},""Domains"":{""Include"":[""PP""]}}",Fully Executable,Draft
CORE-000483,CG0455,TSPARMCD = PCLAS but TSVCDREF does not equal 'MED-RT'.,Raise an error when TSPARMCD = PCLAS but TSVCDREF is not equal to 'MED-RT'.,SDTMIG,"3.2, 3.3","{""Classes"":{""Include"":[""TRIAL DESIGN""]},""Domains"":{""Include"":[""TS""]}}",Fully Executable,Published
CORE-000473,CG0272,A record exists in TS where TSPARMCD = HLTSUBJI and TSVAL = Y but TSVAL for TSPARMCD = TDIGRP is not empty or does not equal HEALTHY SUBJECTS.,Raise an error when a record exists in TS where TSPARMCD = HLTSUBJI and TSVAL = Y but TSVAL for TSPARMCD = TDIGRP is not empty or does not equal HEALTHY SUBJECTS.,SDTMIG,"3.2, 3.3","{""Classes"":{""Include"":[""TRIAL DESIGN""]},""Domains"":{""Include"":[""TS""]}}",Fully Executable,Published
CORE-000470,CG0278,A record exists in TS where TSPARMCD = STYPE and TSVAL = INTERVENTIONAL but TSVAL for TSPARMCD = INTTYPE is empty.,Raise an error when a record exists in TS where TSPARMCD = STYPE and TSVAL = INTERVENTIONAL but TSVAL for TSPARMCD = INTTYPE is empty.,SDTMIG,"3.2, 3.3","{""Classes"":{""Include"":[""TRIAL DESIGN""]},""Domains"":{""Include"":[""TS""]}}",Fully Executable,Published
CORE-000469,CG0277,A record exists in TS where TSPARMCD = STYPE and TSVAL = INTERVENTIONAL but TSVAL for TSPARMCD = INTMODEL is empty.,Raise an error when a record exists in TS where TSPARMCD = STYPE and TSVAL = INTERVENTIONAL but TSVAL for TSPARMCD = INTMODEL is empty.,SDTMIG,"3.2, 3.3","{""Classes"":{""Include"":[""TRIAL DESIGN""]},""Domains"":{""Include"":[""TS""]}}",Fully Executable,Published
CORE-000468,CG0276,A record exists in TS where TSPARMCD = STYPE and TSVAL = INTERVENTIONAL but TSVAL for TSPARMCD = TRT is empty.,Raise an error when a record exists in TS where TSPARMCD = STYPE and TSVAL = INTERVENTIONAL but TSVAL for TSPARMCD = TRT is empty.,SDTMIG,"3.2, 3.3","{""Classes"":{""Include"":[""TRIAL DESIGN""]},""Domains"":{""Include"":[""TS""]}}",Fully Executable,Published
FDA.TRC1734b,TRC1734,Parameter SSTDTC is missing in ts.xpt.,Information on study start date is missing.,"SDTMIG, SENDIG, SENDIG-AR, SENDIG-DART","3.2, 3.3, 3.4, 3.0, 3.1, 3.1.1, 1.0, 1.1, 1.2","{""Classes"":{""Include"":[""TRIAL DESIGN""]},""Domains"":{""Include"":[""TS""]}}",Fully Executable,Draft
CORE-000467,CG0441,TSVAL is missing when TSPARMCD = STOPRULE.,Raise an error when TSPARMCD = STOPRULE and TSVAL is not completed.,SDTMIG,"3.2, 3.3","{""Classes"":{""Include"":[""TRIAL DESIGN""]},""Domains"":{""Include"":[""TS""]}}",Fully Executable,Published
FDA.SDTMIG.SD1112,SD1112,Missing one or more TDM dataset(s),All TDM dataset(s) for the corresponding IG should be included in every submission.,"SDTMIG, SENDIG, SENDIG-AR, SENDIG-DART","3.1.2, 3.1.3, 3.2, 3.3, 3.0, 3.1, 3.1.1, 1.0, 1.1","{""Classes"":{""Include"":[""ALL""]},""Domains"":{""Include"":[""ALL""]}}",Fully Executable,Draft
,"FULL_TEMPLATE, ",,,"ADaMIG, USDM, SDTMIG, SENDIG, SENDIG-DART, SENDIG-GENETOX, SENDIG-AR, Define-XML","1.0 | 1.1 | 1.2 | 1.3, 3.0 | 4.0, 3.2 | 3.3 | 3.4, 3.0 | 3.1 | 3.1.1, 1.1 | 1.2, 1, 1.0, 1.0 | 1.1, 1.0 | 2.0, 3.1.2 | 3.1.3 | 3.2","{""Classes"":{""Exclude"":[""ALL"",""EVENTS"",""FINDINGS"",""FINDINGS ABOUT"",""INTERVENTIONS"",""RELATIONSHIP"",""SPECIAL PURPOSE"",""STUDY REFERENCE"",""TRIAL DESIGN""],""Include"":[""ALL"",""EVENTS"",""FINDINGS"",""FINDINGS ABOUT"",""INTERVENTIONS"",""RELATIONSHIP"",""SPECIAL PURPOSE"",""STUDY REFERENCE"",""TRIAL DESIGN""]},""Datasets"":{""Exclude"":[""ALL"",""AP--"",""APRELSUB"",""POOLDEF"",""RELREC"",""RELSPEC"",""RELSUB"",""SUPP--""],""Include"":[""ALL"",""AP--"",""APRELSUB"",""POOLDEF"",""RELREC"",""RELSPEC"",""RELSUB"",""SUPP--""]},""Domains"":{""Exclude"":[""ALL"",""AP--"",""APRELSUB"",""POOLDEF"",""RELREC"",""RELSPEC"",""RELSUB"",""SUPP--""],""Include"":[""ALL"",""AP--"",""APRELSUB"",""POOLDEF"",""RELREC"",""RELSPEC"",""RELSUB"",""SUPP--""],""include_split_datasets"":""true | false""},""Entities"":{""Exclude"":[""""],""Include"":[""""]},""Subclasses"":{""Exclude"":[""ADVERSE EVENT"",""ALL"",""MEDICAL DEVICE TIME-TO-EVENT"",""NON-COMPARTMENTAL ANALYSIS"",""TIME-TO-EVENT""],""Include"":[""ADVERSE EVENT"",""ALL"",""MEDICAL DEVICE TIME-TO-EVENT"",""NON-COMPARTMENTAL ANALYSIS"",""TIME-TO-EVENT""]},""Data_Structures"":{""Exclude"":[""ADAM OTHER"",""ALL"",""BASIC DATA STRUCTURE"",""DEVICE LEVEL ANALYSIS DATASET"",""MEDICAL DEVICE BASIC DATA STRUCTURE"",""MEDICAL DEVICE OCCURRENCE DATA STRUCTURE"",""OCCURRENCE DATA STRUCTURE"",""SUBJECT LEVEL ANALYSIS DATASET""],""Include"":[""ADAM OTHER"",""ALL"",""BASIC DATA STRUCTURE"",""DEVICE LEVEL ANALYSIS DATASET"",""MEDICAL DEVICE BASIC DATA STRUCTURE"",""MEDICAL DEVICE OCCURRENCE DATA STRUCTURE"",""OCCURRENCE DATA STRUCTURE"",""SUBJECT LEVEL ANALYSIS DATASET""]}}",Fully Executable | Not Executable | Partially Executable | Partially Executable - Possible Overreporting | Partially Executable - Possible Underreporting,Draft
CDISC.SDTMIG.CG0002,CG0002,"'--DUR exists in a dataset, confirm collected and not derived.","Raise a message when --DUR exists in a dataset, confirm collected and not derived.",SDTMIG,"3.4, 3.2, 3.3","{""Classes"":{""Include"":[""ALL""]},""Domains"":{""Include"":[""ALL""]}}",Fully Executable,Draft
CDISC.SDTMIG.CG0321,CG0321,Custom domain is not based on one of the observation classes,Trigger error when a custom domain is present and is not based on one of the observation classes,SDTMIG,"3.4, 3.2, 3.3","{""Classes"":{""Include"":[""ALL""]},""Domains"":{""Include"":[""ALL""]}}",Fully Executable,Draft
CORE-000453,CG0433,"Missing value for AGE, when AGEU is provided","Raise an error when AGE is empty, but AGEU is not empty.",SDTMIG,"3.2, 3.3","{""Classes"":{""Include"":[""SPECIAL PURPOSE""]},""Domains"":{""Include"":[""DM""]}}",Fully Executable,Published
CORE-000452,CG0432,"Missing value for AGEU, when AGE or AGETXT is provided","Raise an error when AGEU is empty, but AGE or AGETXT is not empty.",SDTMIG,"3.2, 3.3","{""Classes"":{""Include"":[""SPECIAL PURPOSE""]},""Domains"":{""Include"":[""DM""]}}",Fully Executable,Published
CDISC.SDTMIG.CG0464,CG0464,'--TERM is not present in custom events dataset,Trigger error when --TERM is not present in custom events dataset,SDTMIG,"3.4, 3.2, 3.3","{""Classes"":{""Include"":[""ALL""]},""Domains"":{""Include"":[""ALL""]}}",Fully Executable,Draft
CDISC.SDTMIG.CG0463,CG0463,'--TRT is not present in custom interventions dataset,Trigger error when --TRT is not present in custom interventions dataset,SDTMIG,"3.4, 3.2, 3.3","{""Classes"":{""Include"":[""ALL""]},""Domains"":{""Include"":[""ALL""]}}",Fully Executable,Draft
CORE-000377,CG0129,DM.ARMCD must equal DM.ACTARMCD when subject is either a screen failure or not assigned to treatment,"ARMCD value must match ACTARMCD value in Demographics when ARMCD equals ""SCRFNFAIL"" or ""NOTASSGN""",SDTMIG,3.2,"{""Classes"":{""Include"":[""SPECIAL PURPOSE""]},""Domains"":{""Include"":[""DM""]}}",Fully Executable,Published
CORE-000375,CG0202,QORIG = ASSIGNED but QEVAL is not populated,Raise an error when QORIG = ASSIGNED and QEVAL is not populated.,SDTMIG,"3.2, 3.3","{""Classes"":{""Include"":[""RELATIONSHIP""]},""Domains"":{""Include"":[""SUPP--""]}}",Fully Executable,Published
CORE-000216,CG0545,MIDSTYPE is not unique within subject when MIDSTYPE = TM.MIDSTYPE and TM.TMRPT = 'N',MIDSTYPE must be unique within subject when MIDSTYPE = TM.MIDSTYPE and TM.TMRPT = 'N',SDTMIG,"3.4, 3.3","{""Classes"":{""Include"":[""SPECIAL PURPOSE""]},""Domains"":{""Include"":[""SM""]}}",Fully Executable,Published
CORE-000373,CG0271,"For TS.TSPARMCD = ""RANDOM"" records, TS.TSVAL value must equal ""N"" or ""Y"" when not missing","For TS.TSPARMCD = ""RANDOM"" records, TS.TSVAL value must equal ""N"" or ""Y"" when not missing",SDTMIG,"3.2, 3.3","{""Classes"":{""Include"":[""TRIAL DESIGN""]},""Domains"":{""Include"":[""TS""]}}",Fully Executable,Published
CORE-000372,CG0269,"For TS.TSPARMCD = ""ADDON"" records, TS.TSVAL value must equal ""N"" or ""Y"" when not missing","For TS.TSPARMCD = ""ADDON"" records, TS.TSVAL value must equal ""N"" or ""Y"" when not missing",SDTMIG,"3.2, 3.3","{""Classes"":{""Include"":[""TRIAL DESIGN""]},""Domains"":{""Include"":[""TS""]}}",Fully Executable,Published
CORE-000371,CG0244,"ARM is ""Screen Failure"", ""Not Assigned"", ""Unplanned Treatment"" or ""Not Treated""","Raise an error when ARM is ""Screen Failure"", ""Not Assigned"", ""Unplanned Treatment"" or ""Not Treated""",SDTMIG,3.2,"{""Classes"":{""Include"":[""TRIAL DESIGN""]},""Domains"":{""Include"":[""TA"",""TV""]}}",Fully Executable,Published
CORE-000365,CG0077,"MHCAT is grouping all records into one generic group. If no smaller categorization can be applied, then it is not necessary to include or populate this variable.","MHCAT should not group all records.  If no smaller categorization can be applied, then it is not necessary to include or populate this variable.",SDTMIG,"3.4, 3.2, 3.3","{""Classes"":{""Include"":[""EVENTS""]},""Domains"":{""Include"":[""MH""],""include_split_datasets"":true}}",Fully Executable,Published
CORE-000364,CG0073,EPOCH should be null if DSCAT is protocol milestone,,SDTMIG,3.2,"{""Classes"":{""Include"":[""EVENTS""]},""Domains"":{""Include"":[""DS""]}}",Fully Executable,Published
CORE-000362,CG0037,Primary analysis was used but --SOCCD and --BDSYCD are not equal,Raise an error when primary SOC is used for analysis and SOC Code is not equal to Body System Code,SDTMIG,"3.4, 3.3, 3.2","{""Classes"":{""Include"":[""EVENTS""]},""Domains"":{""Exclude"":[""DS"",""DV"",""HO""]}}",Fully Executable,Published
CORE-000205,CG0399,'--ULOQ is not expressed using the units in --STRESU,Trigger error when --ULOQ is not expressed using the units in --STRESU,SDTMIG,"3.4, 3.2, 3.3","{""Classes"":{""Include"":[""FINDINGS""]},""Domains"":{""Include"":[""ALL""]}}",Not Executable,Draft
CORE-000343,CG0011,Variable format does not match SDTM-specified controlled terminology or format guidelines for variables (when provided),Trigger error when variable format does not match SDTM-specified controlled terminology or format guidelines for variables (when provided),SDTMIG,"3.4, 3.2, 3.3","{""Classes"":{""Include"":[""ALL""]},""Domains"":{""Include"":[""ALL""]}}",Not Executable,Draft
CORE-000344,CG0020,"Variable is not equal to value within the extensible codelist, nor equal to MULTIPLE","Trigger error if the value of a variable, which is associated with an extensible codelist, is in the associated codelist or equal to 'MULTIPLE'",SDTMIG,"3.4, 3.2, 3.3","{""Classes"":{""Include"":[""ALL""]},""Domains"":{""Include"":[""ALL""]}}",Not Executable,Draft
CORE-000345,CG0021,"Variable is not equal to value within the extensible codelist, nor equal to OTHER","Trigger error if the value of a variable, which is associated with an extensible codelist, is in the associated codelist or equal to 'OTHER'",SDTMIG,"3.4, 3.2, 3.3","{""Classes"":{""Include"":[""ALL""]},""Domains"":{""Include"":[""ALL""]}}",Not Executable,Draft
CORE-000346,CG0047,'--MODIFY is not populated when --TERM has been modified for coding,Trigger error when --TERM has been modified for coding and --MODIFY is null,SDTMIG,"3.4, 3.2, 3.3","{""Classes"":{""Include"":[""EVENTS""]},""Domains"":{""Include"":[""ALL""]}}",Not Executable,Draft
CORE-000348,CG0076,Deviation event must not be derived deviation,"Trigger error if deviation record is a derived variable, not a deviation that was collected",SDTMIG,"3.4, 3.2, 3.3","{""Classes"":{""Include"":[""EVENTS""]},""Domains"":{""Include"":[""DV""]}}",Not Executable,Draft
CORE-000350,CG0099,'--MODIFY is null when --TRT represents an alteration to the collected value.,Trigger error if --TRT represents an alteration to the collected value for coding purposes and --MODIFY is null,SDTMIG,"3.4, 3.2, 3.3","{""Classes"":{""Include"":[""INTERVENTIONS""]},""Domains"":{""Include"":[""CM"",""SU""]}}",Not Executable,Draft
CORE-000349,CG0098,CMTRT must record the collected medication name only,Trigger error if CMTRT contains more than just the medication name,SDTMIG,"3.4, 3.2, 3.3","{""Classes"":{""Include"":[""INTERVENTIONS""]},""Domains"":{""Include"":[""CM""]}}",Not Executable,Draft
CORE-000340,CG0440,TSPARMCD = PLANSUB but the value provided in TSVAL is not a positive integer.,"Raise an error when TSPARMCD = ""PLANSUB"" and the value provided in TSVAL is not an integer greater than 0.",SDTMIG,"3.2, 3.3","{""Classes"":{""Include"":[""TRIAL DESIGN""]},""Domains"":{""Include"":[""TS""]}}",Fully Executable,Published
CORE-000339,CG0456,TSPARMCD = FCNTRY but TSVCDREF is not equal to 'ISO 3166-1 alpha-3',Raise an error when TSPARMCD = FCNTRY and TSVCDREF is not equal to 'ISO 3166-1 alpha-3',SDTMIG,"3.2, 3.3","{""Classes"":{""Include"":[""TRIAL DESIGN""]},""Domains"":{""Include"":[""TS""]}}",Fully Executable,Published
CORE-000338,CG0457,TSPARMCD = ACTSUB but the value provided in TSVAL is not a positive integer.,"Raise an error when TSPARMCD = ""ACTSUB"" and the value provided in TSVAL is not an integer greater than 0.",SDTMIG,"3.2, 3.3","{""Classes"":{""Include"":[""TRIAL DESIGN""]},""Domains"":{""Include"":[""TS""]}}",Fully Executable,Published
CORE-000335,CG0280,"TSPARMCD = ""RANDQT"" but TSVAL is not a number between 0 and 1.","Raise an error when TSPARMCD = ""RANDQT"" and the value provided in TSVAL is not a number between 0 and 1.",SDTMIG,"3.2, 3.3","{""Classes"":{""Include"":[""TRIAL DESIGN""]},""Domains"":{""Include"":[""TS""]}}",Fully Executable,Published
CDISC.SDTMIG.CG0651,CG0651,"Variable is missing, where variable core status is permissible and data is planned to be collected.","Raise an error when variable Core Status = Permissible and data is planned to be collected, but variable is not present",SDTMIG,"3.4, 3.3","{""Classes"":{""Include"":[""ALL""]},""Domains"":{""Include"":[""ALL""]}}",Partially Executable - Possible Underreporting,Draft
CORE-000332,CG0193,"MBRESCAT is expected when MBTESTCD='ORGANISM', MSSTRESC!='NO GROWTH', MBMETHOD!='GRAM STAIN'","Raise an error when MBTESTCD=ORGANISM, MSSTRESC!='NO GROWTH', MBMETHOD!='GRAM STAIN' and MBRESCAT is empty",SDTMIG,3.2,"{""Classes"":{""Include"":[""FINDINGS""]},""Domains"":{""Include"":[""MB""]}}",Fully Executable,Published
WHODrug,WHODrug,Invalid whodrug code hierarcy,WHODRUG hierarchy is valid in provided whodrug dictionary version,SDTMIG,"3.4, 3.3, 3.2","{""Classes"":{""Include"":[""ALL""]},""Domains"":{""Include"":[""ALL""]}}",Fully Executable,Draft
CORE-000331,"CG0124, CG0125","DM.ACTARMCD must equal SCRNFAIL, NOTASSGN, NOTTRT, or UNPLAN if the value is not present in TA.ARMCD","ACTARMCD values in Demographics are restricted to ARMCD values in Trial Arms when ACTARMCD is not equal to ""SCRNFAIL"", ""NOTASSGN"", ""NOTTRT"", or ""UNPLAN""",SDTMIG,3.2,"{""Classes"":{""Include"":[""SPECIAL PURPOSE""]},""Domains"":{""Include"":[""DM""]}}",Fully Executable,Published
CDISC.SDTMIG.CG0097,CG0097,CMTRT was not collected on CRF,Trigger error if CMTRT was not collected on CRF,SDTMIG,"3.4, 3.2, 3.3","{""Classes"":{""Include"":[""INTERVENTIONS""]},""Domains"":{""Include"":[""CM""]}}",Fully Executable,Draft
CORE-000229,CG0361,POOLID must be null when USUBJID is populated,"Verify that When USUBJID is populated, POOLID is not populated",SDTMIG,"3.4, 3.2, 3.3","{""Classes"":{""Include"":[""SPECIAL PURPOSE""]},""Domains"":{""Include"":[""RELSUB""]}}",Fully Executable,Published
CORE-000306,SD0024,"Missing value for --DTC, when --ENDTC is provided","Date/Time of Collection (--DTC) should not be NULL, when End Date/Time of Observation (--ENDTC) is not NULL.","SDTMIG, SENDIG, SENDIG-AR, SENDIG-DART","3.1.2, 3.1.3, 3.2, 3.3, 3.0, 3.1, 3.1.1, 1.0, 1.1","{""Classes"":{""Include"":[""FINDINGS"",""FINDINGS ABOUT""]},""Domains"":{""Include"":[""ALL""]}}",Fully Executable,Draft
CORE-000307,SD0028,Value for --STNRHI is less than value for --STNRLO,Reference Range Upper Limit-Std Units (--STNRHI) value must be greater than or equal to Reference Range Lower Limit-Std Units (--STNRLO) value.,"SDTMIG, SENDIG, SENDIG-AR, SENDIG-DART","3.1.2, 3.1.3, 3.2, 3.3, 3.0, 3.1, 3.1.1, 1.0, 1.1","{""Classes"":{""Include"":[""FINDINGS"",""FINDINGS ABOUT""]},""Domains"":{""Include"":[""ALL""]}}",Fully Executable,Draft
CORE-000301,SD0049,"Missing value for --STTPT, when --STRTPT is populated","Start Reference Time Point (--STTPT) must not be NULL, when Start Relative to Reference Time Point (--STRTPT) is provided.","SDTMIG, SENDIG, SENDIG-AR, SENDIG-DART","3.1.2, 3.1.3, 3.2, 3.3, 3.0, 3.1, 3.1.1, 1.0, 1.1","{""Classes"":{""Include"":[""ALL""]},""Domains"":{""Include"":[""ALL""]}}",Fully Executable,Draft
CORE-000300,SD0050,"Missing value for --ENTPT, when --ENRTPT is populated","End Reference Time Point (--ENTPT) must not be NULL, when End Relative to Reference Time Point (--ENRTPT) is provided.","SDTMIG, SENDIG, SENDIG-AR, SENDIG-DART","3.1.2, 3.1.3, 3.2, 3.3, 3.0, 3.1, 3.1.1, 1.0, 1.1","{""Classes"":{""Include"":[""ALL""]},""Domains"":{""Include"":[""ALL""]}}",Fully Executable,Draft
CORE-000309,SD0087,RFSTDTC is not provided for a randomized subject,"Subject Reference Start Date/Time (RFSTDTC) should be populated for all randomized subjects, those where Planned Arm Code (ARMCD) is not equal to 'SCRNFAIL' or 'NOTASSGN' or null.","SDTMIG, SENDIG, SENDIG-AR, SENDIG-DART","3.1.2, 3.1.3, 3.2, 3.3, 3.0, 3.1, 3.1.1, 1.0, 1.1","{""Classes"":{""Include"":[""SPECIAL PURPOSE""]},""Domains"":{""Include"":[""DM""]}}",Fully Executable,Draft
CORE-000317,SD1034,Inconsistent value for ARMCD,A value for Planned Arm Code (ARMCD) must have a unique value for Description of Planned Arm (ARM) with the domain.,"SDTMIG, SENDIG, SENDIG-AR, SENDIG-DART","3.1.2, 3.1.3, 3.2, 3.3, 3.0, 3.1, 3.1.1, 1.0, 1.1","{""Classes"":{""Include"":[""TRIAL DESIGN"",""SPECIAL PURPOSE""]},""Domains"":{""Include"":[""TA"",""TV"",""DM""]}}",Fully Executable,Draft
CORE-000316,SD1043,Inconsistent value for --TESTCD within --TEST,"All values of Short Name of Measurement, Test or Examination (--TESTCD) should be the same for a given value of Name of Measurement, Test or (--TEST).","SDTMIG, SENDIG, SENDIG-AR, SENDIG-DART","3.1.2, 3.1.3, 3.2, 3.3, 3.0, 3.1, 3.1.1, 1.0, 1.1","{""Classes"":{""Include"":[""FINDINGS"",""FINDINGS ABOUT""]},""Domains"":{""Include"":[""ALL""]}}",Fully Executable,Draft
CORE-000315,SD1050,Non-unique value for ETCD within ELEMENT,Element Code (ETCD) must have a unique value for a given value of Description of Element (ELEMENT) within the domain.,"SDTMIG, SENDIG, SENDIG-AR, SENDIG-DART","3.1.2, 3.1.3, 3.2, 3.3, 3.0, 3.1, 3.1.1, 1.0, 1.1","{""Classes"":{""Include"":[""SPECIAL PURPOSE"",""TRIAL DESIGN""]},""Domains"":{""Include"":[""TA"",""SE""]}}",Fully Executable,Draft
CORE-000314,SD1064,Duplicate ETCD value,The value of Element Code (ETCD) variable must be unique within Trial Elements (TE) domain.,"SDTMIG, SENDIG, SENDIG-AR, SENDIG-DART","3.1.2, 3.1.3, 3.2, 3.3, 3.0, 3.1, 3.1.1, 1.0, 1.1","{""Classes"":{""Include"":[""TRIAL DESIGN""]},""Domains"":{""Include"":[""TE""]}}",Fully Executable,Draft
CORE-000313,SD1068,Duplicate ELEMENT value,The value of Element (Description of Element) variable must be unique within Trial Elements (TE) domain.,"SDTMIG, SENDIG, SENDIG-AR, SENDIG-DART","3.1.2, 3.1.3, 3.2, 3.3, 3.0, 3.1, 3.1.1, 1.0, 1.1","{""Classes"":{""Include"":[""TRIAL DESIGN""]},""Domains"":{""Include"":[""TE""]}}",Fully Executable,Draft
CORE-000312,SD1069,Inconsistent value for --PARM within --PARMCD,All values of a Parameter (--PARM) variables should be the same for a given value of a Parameter Short Name (--PARMCD) variables.,"SDTMIG, SENDIG, SENDIG-AR, SENDIG-DART","3.1.2, 3.1.3, 3.2, 3.3, 3.0, 3.1, 3.1.1, 1.0, 1.1","{""Classes"":{""Include"":[""TRIAL DESIGN"",""STUDY REFERENCE""]},""Domains"":{""Include"":[""TS"",""TX"",""DI""]}}",Fully Executable,Draft
CORE-000311,SD1070,Inconsistent value for --PARMCD within --PARM,All values of a Parameter Short Name (--PARMCD) variables should be the same for a given value of a Parameter (--PARM) variables.,"SDTMIG, SENDIG, SENDIG-AR, SENDIG-DART","3.1.2, 3.1.3, 3.2, 3.3, 3.0, 3.1, 3.1.1, 1.0, 1.1","{""Classes"":{""Include"":[""TRIAL DESIGN"",""STUDY REFERENCE""]},""Domains"":{""Include"":[""TS"",""DI"",""TX""]}}",Fully Executable,Draft
CORE-000288,SD2019,Invalid value for AGETXT,Age Range (AGETXT) variable values should be populated with 'number-number' format.,"SDTMIG, SENDIG, SENDIG-AR, SENDIG-DART","3.1.3, 3.2, 3.3, 3.0, 3.1, 3.1.1, 1.0, 1.1","{""Classes"":{""Include"":[""SPECIAL PURPOSE""]},""Domains"":{""Include"":[""DM""]}}",Fully Executable,Draft
CORE-000285,SD2020,Both AGE and AGETXT variables values are populated,Age (AGE) and Age Range (AGETXT) variables should never both be populated for the same subject.,"SDTMIG, SENDIG, SENDIG-AR, SENDIG-DART","3.1.3, 3.2, 3.3, 3.0, 3.1, 3.1.1, 1.0, 1.1","{""Classes"":{""Include"":[""SPECIAL PURPOSE""]},""Domains"":{""Include"":[""DM""]}}",Fully Executable,Draft
CORE-000286,SD2023,AGE is not provided,"Age (AGE) variable values should be provided, when Date/Time of Birth (BRTHDTC) variable values are populated.","SDTMIG, SENDIG, SENDIG-AR, SENDIG-DART","3.1.2, 3.1.3, 3.2, 3.3, 3.0, 3.1, 3.1.1, 1.0, 1.1","{""Classes"":{""Include"":[""SPECIAL PURPOSE""]},""Domains"":{""Include"":[""DM""]}}",Fully Executable,Draft
CORE-000283,SD2277,Missing PDSTIND Trial Summary Parameter,'Pediatric Study Indicator' (PDSTIND) record must be populated in Trial Summary (TS) domain. It is an 'FDA Desired' parameter listed in the Technical Conformance Guide (TCG).,SDTMIG,"3.1.2, 3.1.3, 3.2, 3.3","{""Classes"":{""Include"":[""TRIAL DESIGN""]},""Domains"":{""Include"":[""TS""]}}",Fully Executable,Draft
CORE-000277,SD2279,Missing RDIND Trial Summary Parameter,'Rare Disease Indicator' (RDIND) record must be populated in Trial Summary (TS) domain. It is an 'FDA Desired' parameter listed in the Technical Conformance Guide (TCG).,SDTMIG,"3.1.2, 3.1.3, 3.2, 3.3","{""Classes"":{""Include"":[""TRIAL DESIGN""]},""Domains"":{""Include"":[""TS""]}}",Fully Executable,Draft
CORE-000278,SD2280,Missing SDTIGVER Trial Summary Parameter,'SDTM IG Version' (SDTIGVER) record must be populated in Trial Summary (TS) domain. It is an 'FDA Desired' parameter listed in the Technical Conformance Guide (TCG).,SDTMIG,"3.1.2, 3.1.3, 3.2, 3.3","{""Classes"":{""Include"":[""TRIAL DESIGN""]},""Domains"":{""Include"":[""TS""]}}",Fully Executable,Draft
CORE-000279,SD2281,Missing SDTMVER Trial Summary Parameter,'SDTM Version' (SDTMVER) record must be populated in Trial Summary (TS) domain. It is an 'FDA Desired' parameter listed in the Technical Conformance Guide (TCG).,SDTMIG,"3.1.2, 3.1.3, 3.2, 3.3","{""Classes"":{""Include"":[""TRIAL DESIGN""]},""Domains"":{""Include"":[""TS""]}}",Fully Executable,Draft
CORE-000276,SD2283,Value for TSVALNF not found in ISO 21090,Value for the Null Flavor (TSVALNF) variable must be populated using terms found in ISO 21090.,SDTMIG,"3.1.3, 3.2, 3.3","{""Classes"":{""Include"":[""TRIAL DESIGN""]},""Domains"":{""Include"":[""TS""]}}",Fully Executable,Draft
CORE-000327,SD1122,Missing value for --STRESN,"Standardized Result in Numeric Format (--STRESN) variable value should be populated, when Standardized Result in Character Format (--STRESC) variable value represents a numeric value.","SDTMIG, SENDIG, SENDIG-AR, SENDIG-DART","3.1.2, 3.1.3, 3.2, 3.3, 3.0, 3.1, 3.1.1, 1.0, 1.1","{""Classes"":{""Include"":[""FINDINGS"",""FINDINGS ABOUT""]},""Domains"":{""Include"":[""ALL""]}}",Fully Executable,Draft
CORE-000329,CG0063,Multiple records within same USUBJID exist with DSCAT = DISPOSITION EVENT but EPOCH is empty,Raise an error when multiple records within same USUBJID exist with DSCAT = DISPOSITION EVENT but EPOCH is empty,SDTMIG,3.2,"{""Classes"":{""Include"":[""EVENTS""]},""Domains"":{""Include"":[""DS""]}}",Fully Executable,Published
FDA.SDTMIG.SD2273,SD2273,Missing EXTTIND Trial Summary Parameter,'Extension Trial Indicator' (EXTTIND) record must be populated in Trial Summary (TS) domain. It is an 'FDA Desired' parameter listed in the Technical Conformance Guide (TCG).,SDTMIG,"3.1.2, 3.1.3, 3.2, 3.3","{""Classes"":{""Include"":[""TRIAL DESIGN""]},""Domains"":{""Include"":[""TS""]}}",Fully Executable,Draft
FDA.SDTMIG.SD2274,SD2274,Missing NCOHORT Trial Summary Parameter,'Number of Groups/Cohorts' (NCOHORT) record must be populated in Trial Summary (TS) domain. It is an 'FDA Desired' parameter listed in the Technical Conformance Guide (TCG).,SDTMIG,"3.1.2, 3.1.3, 3.2, 3.3","{""Classes"":{""Include"":[""TRIAL DESIGN""]},""Domains"":{""Include"":[""TS""]}}",Fully Executable,Draft
FDA.SDTMIG.SD2275,SD2275,Missing OBJSEC Trial Summary Parameter,'Trial Secondary Objective' (OBJSEC) record must be populated in Trial Summary (TS) domain. It is an 'FDA Desired' parameter listed in the Technical Conformance Guide (TCG).,SDTMIG,"3.1.2, 3.1.3, 3.2, 3.3","{""Classes"":{""Include"":[""TRIAL DESIGN""]},""Domains"":{""Include"":[""TS""]}}",Fully Executable,Draft
FDA.SDTMIG.SD2276,SD2276,Missing PDPSTIND Trial Summary Parameter,'Pediatric Postmarket Study Indicator' (PDPSTIND) record must be populated in Trial Summary (TS) domain. It is an 'FDA Desired' parameter listed in the Technical Conformance Guide (TCG).,SDTMIG,"3.1.2, 3.1.3, 3.2, 3.3","{""Classes"":{""Include"":[""TRIAL DESIGN""]},""Domains"":{""Include"":[""TS""]}}",Fully Executable,Draft
FDA.SDTMIG.SD2278,SD2278,Missing PIPIND Trial Summary Parameter,'Pediatric Investigation Plan Indicator' (PIPIND) record must be populated in Trial Summary (TS) domain. It is an 'FDA Desired' parameter listed in the Technical Conformance Guide (TCG).,SDTMIG,"3.1.2, 3.1.3, 3.2, 3.3","{""Classes"":{""Include"":[""TRIAL DESIGN""]},""Domains"":{""Include"":[""TS""]}}",Fully Executable,Draft
CORE-000280,SD2282,Missing THERAREA Trial Summary Parameter,'Therapeutic Area' (THERAREA) record must be populated in Trial Summary (TS) domain. It is an 'FDA Desired' parameter listed in the Technical Conformance Guide (TCG).,SDTMIG,"3.1.2, 3.1.3, 3.2, 3.3","{""Classes"":{""Include"":[""TRIAL DESIGN""]},""Domains"":{""Include"":[""TS""]}}",Fully Executable,Draft
CORE-000326,CG0568,EXMETHOD is not to be used with human clinical trials,Trigger error when EXMETHOD exists in the EX dataset for human clinical trials,SDTMIG,3.3,"{""Classes"":{""Include"":[""INTERVENTIONS""]},""Domains"":{""Include"":[""EX""]}}",Fully Executable,Published
FDA.SDTMIG.SD9999,SD9999,Dataset class not recognized,"The structure for custom dataset should be based on one of the general observation classes (EVENTS, FINDINGS, INTERVENTIONS) defined by the SDTM model.","SDTMIG, SENDIG, SENDIG-AR, SENDIG-DART","3.1.2, 3.1.3, 3.2, 3.3, 3.0, 3.1, 3.1.1, 1.0, 1.1","{""Classes"":{""Include"":[]},""Domains"":{""Include"":[""UNRECOGNIZED""]}}",Fully Executable,Draft
FDA.SDTMIG.SD2285,SD2285,Value for --LOINC not found in LOINC coding system,Value for the LOINC Code (--LOINC) variable must be populated using a LOINC coding system version specified in the define.xml.,"SDTMIG, SENDIG-AR","3.1.2, 3.1.3, 3.2, 3.3, 1.0","{""Classes"":{""Include"":[]},""Domains"":{""Include"":[""LB"",""MB"",""MS""]}}",Fully Executable,Draft
FDA.SDTMIG.SD2269,SD2269,TSVAL/TSVALCD value mismatch for TDIGRP,TSVAL and TSVALCD values must be populated from the same concept description record in SNOMED CT.,SDTMIG,"3.1.3, 3.2, 3.3","{""Classes"":{""Include"":[]},""Domains"":{""Include"":[""TS""]}}",Fully Executable,Draft
FDA.SDTMIG.SD2268,SD2268,Invalid TSVALCD value for TDIGRP,TSVALCD for TDIGRP record must be a valid concept ID from SNOMED CT.,SDTMIG,"3.1.3, 3.2, 3.3","{""Classes"":{""Include"":[]},""Domains"":{""Include"":[""TS""]}}",Fully Executable,Draft
FDA.SDTMIG.SD2266,SD2266,Invalid TSVCDREF value for TDIGRP,"TSVCDREF variable value must be 'SNOMED', when TSPARAMCD='TDIGRP'.",SDTMIG,"3.1.3, 3.2, 3.3","{""Classes"":{""Include"":[""TRIAL DESIGN""]},""Domains"":{""Include"":[""TS""]}}",Fully Executable,Draft
FDA.SDTMIG.SD2267,SD2267,Invalid TSVAL value for TDIGRP,TSVAL for TDIGRP record must be a valid term from SNOMED CT.,SDTMIG,"3.1.3, 3.2, 3.3","{""Classes"":{""Include"":[]},""Domains"":{""Include"":[""TS""]}}",Fully Executable,Draft
FDA.SDTMIG.SD2265,SD2265,TSVAL/TSVALCD value mismatch for PCLAS,"TSVAL and TSVALCD values must be populated from the same record in MED-RT or NDF-RT (Note: Any version 2018-02-05 or earlier uses NDF-RT, and any version after is MED-RT).",SDTMIG,"3.1.2, 3.1.3, 3.2, 3.3","{""Classes"":{""Include"":[]},""Domains"":{""Include"":[""TS""]}}",Fully Executable,Draft
FDA.SDTMIG.SD2264,SD2264,Invalid TSVALCD value for PCLAS,"TSVALCD for PCLAS record must be a valid code from MED-RT or NDF-RT (Note: Any version 2018-02-05 or earlier uses NDF-RT, and any version after is MED-RT).",SDTMIG,"3.1.2, 3.1.3, 3.2, 3.3","{""Classes"":{""Include"":[]},""Domains"":{""Include"":[""TS""]}}",Fully Executable,Draft
FDA.SDTMIG.SD2263,SD2263,Invalid TSVAL value for PCLAS,"TSVAL for PCLAS record must be a valid term from MED-RT or NDF-RT (Note: Any version 2018-02-05 or earlier uses NDF-RT, and any version after is MED-RT).",SDTMIG,"3.1.2, 3.1.3, 3.2, 3.3","{""Classes"":{""Include"":[]},""Domains"":{""Include"":[""TS""]}}",Fully Executable,Draft
FDA.SDTMIG.SD2262,SD2262,TSVAL/TSVALCD value mismatch for TRT,TSVAL and TSVALCD values must be populated from the same name record in FDA Substance Registration System (SRS).,SDTMIG,"3.1.2, 3.1.3, 3.2, 3.3","{""Classes"":{""Include"":[]},""Domains"":{""Include"":[""TS""]}}",Fully Executable,Draft
FDA.SDTMIG.SD2261,SD2261,Invalid TSVALCD value for TRT,TSVALCD for TRT record must be a valid unique ingredient identifier from FDA Substance Registration System (SRS).,SDTMIG,"3.1.2, 3.1.3, 3.2, 3.3","{""Classes"":{""Include"":[]},""Domains"":{""Include"":[""TS""]}}",Fully Executable,Draft
